Subject,Procedure[Trial],Start.OnsetTime,Images.OnsetTime,Condition.paramod,Images.ACC,Images.RT
2,2,18391,27739,0,1,538
2,2,18391,30512,0,1,493
2,2,18391,33152,0,1,376
2,2,18391,35858,0,1,387
2,2,18391,39577,0,0,352
2,2,18391,42931,0,1,353
2,2,18391,47016,0,1,332
2,2,18391,50286,0,1,463
2,2,18391,53790,0,0,288
2,2,18391,56114,0,1,382
2,1,18391,75557,2,1,1272
2,1,18391,79674,1,1,869
2,1,18391,82879,3,1,818
2,1,18391,86133,3,1,725
2,1,18391,90101,1,1,962
2,1,18391,93904,3,1,1164
2,1,18391,98005,1,1,869
2,1,18391,100811,2,1,1042
2,1,18391,105094,1,0,978
2,2,18391,124869,0,1,1461
2,2,18391,129003,0,1,699
2,2,18391,131975,0,1,966
2,2,18391,135213,0,0,815
2,2,18391,138202,0,1,886
2,2,18391,141771,0,0,764
2,2,18391,145441,0,1,664
2,2,18391,147998,0,0,857
2,2,18391,151268,0,1,645
2,2,18391,154191,0,1,886
2,1,18391,173833,3,1,640
2,1,18391,176705,3,0,740
2,1,18391,180092,2,1,876
2,1,18391,184409,2,1,718
2,1,18391,188659,3,1,549
2,1,18391,192445,2,0,447
2,1,18391,195832,2,1,649
2,1,18391,199618,1,0,765
2,1,18391,202009,1,0,752
2,2,18391,222364,0,1,672
2,2,18391,226399,0,1,595
2,2,18391,229853,0,1,402
2,2,18391,232426,0,1,606
2,2,18391,235813,0,1,1230
2,2,18391,239117,0,1,925
2,2,18391,243999,0,1,607
2,2,18391,247967,0,1,690
2,2,18391,251321,0,1,625
2,1,18391,271095,2,1,785
2,1,18391,273603,2,1,925
2,1,18391,277405,1,0,1098
2,1,18391,281539,1,1,1616
2,1,18391,286686,2,1,1416
2,1,18391,290538,1,1,1870
2,1,18391,294955,1,1,1375
2,1,18391,299471,3,1,1376
2,2,18391,320076,0,1,546
2,2,18391,323031,0,1,370
2,2,18391,326783,0,1,361
2,2,18391,330154,0,1,464
2,2,18391,332993,0,1,682
2,2,18391,335567,0,1,669
2,2,18391,338721,0,1,534
2,2,18391,342325,0,1,375
2,2,18391,345180,0,1,620
2,2,18391,349281,0,1,584
2,1,18391,368325,1,0,1791
2,1,18391,372958,1,0,2165
2,1,18391,377258,3,1,1477
2,1,18391,381376,3,1,1550
2,1,18391,384895,1,0,0
2,1,18391,389926,3,1,939
2,1,18391,392898,3,1,864
2,1,18391,396003,2,1,812
9,2,46066,55397,0,1,1446
9,2,46066,59083,0,1,407
9,2,46066,61640,0,1,637
9,2,46066,64612,0,1,470
9,2,46066,68414,0,1,856
9,2,46066,72216,0,1,588
9,2,46066,76533,0,1,728
9,2,46066,80202,0,1,780
9,2,46066,84021,0,1,632
9,1,46066,103215,2,1,2152
9,1,46066,108212,1,1,2031
9,1,46066,112579,3,1,1484
9,1,46066,116497,3,1,1292
9,1,46066,121030,1,0,1990
9,1,46066,125862,3,1,1843
9,1,46066,130644,1,1,1859
9,2,46066,150966,0,1,403
9,2,46066,154005,0,1,459
9,2,46066,156694,0,1,672
9,2,46066,159600,0,1,516
9,2,46066,162256,0,1,617
9,2,46066,165511,0,1,644
9,2,46066,168997,0,1,540
9,2,46066,171388,0,1,728
9,2,46066,174460,0,1,553
9,2,46066,177249,0,1,471
9,2,46066,179956,0,1,568
9,1,46066,199481,3,1,1106
9,1,46066,202819,3,1,1199
9,1,46066,206654,2,1,1488
9,1,46066,211585,2,1,2275
9,1,46066,217396,3,1,1268
9,1,46066,221896,2,0,1088
9,1,46066,225914,2,1,1250
9,2,46066,246818,0,1,403
9,2,46066,250554,0,1,391
9,2,46066,253775,0,1,421
9,2,46066,256332,0,1,456
9,2,46066,259519,0,1,386
9,2,46066,261944,0,1,467
9,2,46066,266343,0,1,560
9,2,46066,270245,0,1,565
9,2,46066,273450,0,1,436
9,2,46066,276521,0,1,514
9,1,46066,296695,2,1,533
9,1,46066,298969,2,1,1653
9,1,46066,303469,1,1,1403
9,1,46066,307918,1,1,1145
9,1,46066,312601,2,1,1226
9,1,46066,316270,1,1,1917
9,1,46066,320720,1,1,1478
9,1,46066,325335,3,1,1349
9,2,46066,345841,0,1,439
9,2,46066,348613,0,1,696
9,2,46066,352648,0,1,512
9,2,46066,356102,0,1,862
9,2,46066,359306,0,1,531
9,2,46066,361680,0,1,1187
9,2,46066,365300,0,1,488
9,2,46066,368820,0,1,747
9,2,46066,372008,0,1,468
9,1,46066,392430,1,0,2362
9,1,46066,397627,1,1,1247
9,1,46066,401014,3,1,935
9,1,46066,404584,3,1,1066
9,1,46066,407589,1,1,1266
9,1,46066,411391,3,0,701
9,1,46066,414131,3,0,1037
9,1,46066,417468,2,0,1152
9,1,46066,421353,2,0,538
23,2,48619,57950,0,1,537
23,2,48619,60739,0,1,463
23,2,48619,63346,0,1,468
23,2,48619,66152,0,1,419
23,2,48619,69904,0,1,480
23,2,48619,73408,0,1,397
23,2,48619,77542,0,1,339
23,2,48619,80813,0,1,400
23,2,48619,84250,0,1,547
23,2,48619,86840,0,1,499
23,1,48619,106399,2,0,1127
23,1,48619,110367,1,0,1437
23,1,48619,114136,3,1,993
23,1,48619,117573,3,0,1535
23,1,48619,122338,1,1,1064
23,1,48619,126240,3,1,830
23,1,48619,130009,1,0,928
23,1,48619,132881,2,1,1840
23,2,48619,154632,0,1,541
23,2,48619,157886,0,1,361
23,2,48619,160542,0,1,376
23,2,48619,163199,0,1,328
23,2,48619,165689,0,1,426
23,2,48619,168794,0,1,486
23,2,48619,172181,0,1,370
23,2,48619,174439,0,0,485
23,2,48619,177312,0,1,773
23,2,48619,180350,0,1,417
23,2,48619,183057,0,1,354
23,1,48619,202366,3,1,861
23,1,48619,205455,3,0,657
23,1,48619,208759,2,0,1027
23,1,48619,213208,2,0,761
23,1,48619,217509,3,1,887
23,1,48619,221626,2,0,730
23,1,48619,225296,2,1,712
23,1,48619,229148,1,0,528
23,1,48619,231323,1,1,510
23,2,48619,251413,0,1,1022
23,2,48619,255780,0,1,453
23,2,48619,259117,0,1,527
23,2,48619,261823,0,1,537
23,2,48619,265144,0,1,541
23,2,48619,267751,0,1,497
23,2,48619,272217,0,1,524
23,2,48619,276119,0,1,498
23,2,48619,279290,0,1,547
23,1,48619,298998,2,1,723
23,1,48619,301472,2,1,1102
23,1,48619,305457,1,1,741
23,1,48619,309243,1,0,1054
23,1,48619,313825,2,0,1080
23,1,48619,317345,1,0,0
23,1,48619,322376,1,1,2139
23,1,48619,327656,3,0,888
23,2,48619,347746,0,0,0
23,2,48619,352627,0,1,730
23,2,48619,356728,0,1,728
23,2,48619,360431,0,1,489
23,2,48619,363287,0,1,573
23,2,48619,365727,0,1,638
23,2,48619,368849,0,1,495
23,2,48619,372452,0,1,580
23,2,48619,375507,0,1,1319
23,1,48619,396793,1,0,1551
23,1,48619,401176,1,1,1296
23,1,48619,404613,3,0,714
23,1,48619,407967,3,0,1305
23,1,48619,411237,1,0,1875
23,1,48619,415654,3,0,1389
23,1,48619,419091,3,1,1754
23,1,48619,423142,2,1,1199
28,2,51496,60844,0,1,345
28,2,51496,63434,0,1,468
28,2,51496,66041,0,1,499
28,2,51496,68880,0,1,570
28,2,51496,72782,0,1,337
28,2,51496,76053,0,1,448
28,2,51496,80237,0,1,482
28,2,51496,83657,0,1,464
28,2,51496,87160,0,1,392
28,2,51496,89601,0,1,576
28,1,51496,109243,2,1,1253
28,1,51496,113327,1,1,875
28,1,51496,116531,3,1,1246
28,1,51496,120217,3,1,839
28,1,51496,124285,1,0,1585
28,1,51496,128702,3,1,749
28,1,51496,132388,1,0,1449
28,1,51496,135775,2,0,1068
28,2,51496,156595,0,1,539
28,2,51496,159766,0,1,394
28,2,51496,162406,0,1,773
28,2,51496,165428,0,1,448
28,2,51496,168018,0,1,392
28,2,51496,171040,0,1,436
28,2,51496,174377,0,1,413
28,2,51496,176635,0,1,439
28,2,51496,179408,0,1,415
28,2,51496,182065,0,1,390
28,2,51496,184705,0,1,550
28,1,51496,204213,3,1,851
28,1,51496,207302,3,1,699
28,1,51496,210639,2,1,676
28,1,51496,214740,2,1,772
28,1,51496,219040,3,1,1156
28,1,51496,223440,2,1,1459
28,1,51496,227840,2,1,988
28,1,51496,231958,1,0,1607
28,2,51496,251732,0,1,438
28,2,51496,255501,0,1,502
28,2,51496,258838,0,1,438
28,2,51496,261412,0,1,367
28,2,51496,264517,0,1,659
28,2,51496,267223,0,1,432
28,2,51496,271590,0,1,349
28,2,51496,275309,0,1,411
28,2,51496,278364,0,1,460
28,2,51496,281452,0,1,403
28,1,51496,301509,2,1,934
28,1,51496,304182,2,1,697
28,1,51496,307719,1,1,690
28,1,51496,311454,1,1,896
28,1,51496,315887,2,0,1089
28,1,51496,319407,1,0,699
28,1,51496,322645,1,0,1067
28,1,51496,326846,3,1,793
28,1,51496,330266,3,1,1081
28,2,51496,350705,0,1,359
28,2,51496,353411,0,1,470
28,2,51496,357213,0,1,430
28,2,51496,360583,0,1,375
28,2,51496,363340,0,1,590
28,2,51496,365780,0,1,555
28,2,51496,368769,0,1,511
28,2,51496,372322,0,1,464
28,2,51496,375228,0,1,511
28,2,51496,379179,0,1,436
28,1,51496,398074,1,1,977
28,1,51496,401893,1,1,982
28,1,51496,405014,3,1,701
28,1,51496,408351,3,1,888
28,1,51496,411174,1,1,1209
28,1,51496,414926,3,1,959
28,1,51496,417931,3,0,827
28,1,51496,421003,2,0,1167
28,1,51496,424954,2,1,725
31,2,12531,21862,0,1,541
31,2,12531,24651,0,1,548
31,2,12531,27341,0,1,491
31,2,12531,30180,0,1,430
31,2,12531,33949,0,1,538
31,2,12531,37419,0,1,417
31,2,12531,41570,0,1,434
31,2,12531,44940,0,1,865
31,2,12531,48842,0,1,678
31,2,12531,51565,0,1,519
31,1,12531,71140,2,1,1792
31,1,12531,75773,1,0,1908
31,1,12531,80023,3,1,1404
31,1,12531,83875,3,1,1016
31,1,12531,88126,1,0,1707
31,1,12531,92675,3,1,1105
31,1,12531,96709,1,1,1061
31,1,12531,99715,2,0,1237
31,2,12531,120701,0,1,1506
31,2,12531,124852,0,1,465
31,2,12531,127558,0,1,567
31,2,12531,130364,0,1,533
31,2,12531,133037,0,1,526
31,2,12531,136242,0,1,423
31,2,12531,139496,0,1,543
31,2,12531,141887,0,1,670
31,2,12531,144892,0,1,393
31,2,12531,147532,0,1,466
31,2,12531,150238,0,1,666
31,1,12531,169864,3,1,948
31,1,12531,173051,3,1,1184
31,1,12531,176870,2,1,1242
31,1,12531,181552,2,1,1908
31,1,12531,186998,3,1,997
31,1,12531,191232,2,1,958
31,1,12531,195134,2,1,1276
31,1,12531,199550,1,0,1312
31,2,12531,219026,0,1,1079
31,2,12531,223476,0,1,458
31,2,12531,226763,0,1,839
31,2,12531,229752,0,1,1351
31,2,12531,233836,0,1,643
31,2,12531,236526,0,1,1591
31,2,12531,242055,0,1,658
31,2,12531,246039,0,1,454
31,1,12531,265648,2,1,1313
31,1,12531,268703,2,1,1123
31,1,12531,272655,1,1,1575
31,1,12531,277270,1,1,1038
31,1,12531,281836,2,1,1805
31,1,12531,286070,1,0,1678
31,1,12531,290287,1,0,1904
31,1,12531,295335,3,1,1235
31,2,12531,315724,0,1,1479
31,2,12531,319542,0,1,379
31,2,12531,323245,0,1,535
31,2,12531,326715,0,1,405
31,2,12531,329454,0,1,532
31,2,12531,331829,0,1,663
31,2,12531,334934,0,1,494
31,2,12531,338470,0,1,547
31,2,12531,341459,0,1,651
31,2,12531,345609,0,1,441
31,1,12531,364521,1,1,2214
31,1,12531,369568,1,1,1095
31,1,12531,372806,3,1,831
31,1,12531,376276,3,1,970
31,1,12531,379165,1,1,1519
31,1,12531,383216,3,0,661
31,1,12531,385906,3,1,1103
31,1,12531,389243,2,1,1336
31,1,12531,393311,2,1,1438
35,2,29128,38459,0,1,865
35,2,29128,41564,0,1,560
35,2,29128,44254,0,1,684
35,2,29128,47275,0,1,482
35,2,29128,51094,0,1,701
35,2,29128,54730,0,1,568
35,2,29128,59030,0,1,665
35,2,29128,62633,0,1,595
35,2,29128,66269,0,1,726
35,1,29128,85546,2,1,2939
35,1,29128,90876,1,1,2066
35,1,29128,95292,3,1,1740
35,1,29128,99476,3,1,1526
35,1,29128,104241,1,1,2910
35,1,29128,109571,3,1,3045
35,1,29128,115000,1,0,2154
35,2,29128,135621,0,1,611
35,2,29128,138876,0,1,873
35,2,29128,141981,0,1,1019
35,2,29128,145235,0,1,581
35,2,29128,147958,0,1,686
35,2,29128,151278,0,1,812
35,2,29128,154931,0,1,620
35,2,29128,157388,0,1,996
35,2,29128,160726,0,1,1140
35,2,29128,164096,0,1,789
35,1,29128,183655,3,1,1017
35,1,29128,186909,3,1,1022
35,1,29128,190562,2,1,1889
35,1,29128,195875,2,1,1640
35,1,29128,201039,3,1,1314
35,1,29128,205588,2,1,1848
35,1,29128,210370,2,1,1053
35,2,29128,231074,0,1,394
35,2,29128,234793,0,1,966
35,2,29128,238595,0,1,641
35,2,29128,241368,0,1,885
35,2,29128,244988,0,1,600
35,2,29128,247627,0,1,749
35,2,29128,252310,0,1,451
35,2,29128,256095,0,1,671
35,2,29128,259399,0,1,791
35,1,29128,279356,2,1,1876
35,1,29128,282976,2,1,2665
35,1,29128,288306,1,1,2802
35,1,29128,293835,1,1,3319
35,1,29128,299862,2,1,1196
35,1,29128,303498,1,0,1654
35,1,29128,307682,1,1,1735
35,2,29128,329067,0,1,1013
35,2,29128,332421,0,1,734
35,2,29128,336488,0,1,564
35,2,29128,339992,0,1,862
35,2,29128,343196,0,1,575
35,2,29128,345587,0,1,802
35,2,29128,348825,0,1,596
35,2,29128,352461,0,1,1010
35,2,29128,355914,0,1,978
35,1,29128,376851,1,1,1792
35,1,29128,381483,1,0,2274
35,1,29128,385900,3,1,2051
35,1,29128,390582,3,1,1160
35,1,29128,393687,1,1,3324
35,1,29128,398718,3,1,2206
35,1,29128,402952,3,1,1696
38,2,18788,28119,0,1,677
38,2,18788,31024,0,1,459
38,2,18788,33615,0,1,624
38,2,18788,36587,0,1,469
38,2,18788,40389,0,1,440
38,2,18788,43842,0,1,464
38,2,18788,48043,0,1,478
38,2,18788,51463,0,1,540
38,2,18788,55033,0,1,408
38,2,18788,57490,0,1,571
38,1,18788,77116,2,1,1181
38,1,18788,81134,1,1,1604
38,1,18788,85069,3,1,1403
38,1,18788,88921,3,1,1253
38,1,18788,93404,1,1,1188
38,1,18788,97422,3,0,1869
38,1,18788,102220,1,1,1304
38,1,18788,105458,2,1,1713
38,2,18788,126992,0,1,448
38,2,18788,130114,0,1,448
38,2,18788,132837,0,1,380
38,2,18788,135510,0,1,270
38,2,18788,137951,0,1,386
38,2,18788,141022,0,1,407
38,2,18788,144310,0,1,527
38,2,18788,146717,0,1,568
38,2,18788,149689,0,1,599
38,2,18788,152562,0,1,462
38,2,18788,155285,0,1,522
38,1,18788,174777,3,1,679
38,1,18788,177699,3,0,0
38,1,18788,182830,2,0,1116
38,1,18788,187379,2,0,1250
38,1,18788,192161,3,0,1207
38,1,18788,196594,2,0,1496
38,1,18788,201027,2,1,1024
38,2,18788,221732,0,1,624
38,2,18788,225717,0,0,1283
38,2,18788,229868,0,0,821
38,2,18788,232873,0,1,1139
38,2,18788,236791,0,0,724
38,2,18788,239614,0,1,887
38,2,18788,244462,0,1,1702
38,2,18788,249543,0,0,892
38,1,18788,269600,2,1,1909
38,1,18788,273252,2,1,993
38,1,18788,277138,1,1,985
38,1,18788,281222,1,1,1052
38,1,18788,285805,2,0,1851
38,1,18788,290105,1,1,1547
38,1,18788,294189,1,1,1090
38,1,18788,298423,3,0,1143
38,2,18788,318763,0,1,1290
38,2,18788,322448,0,1,298
38,2,18788,326151,0,1,350
38,2,18788,329472,0,1,705
38,2,18788,332543,0,1,844
38,2,18788,335266,0,1,571
38,2,18788,338321,0,1,545
38,2,18788,341958,0,1,414
38,2,18788,344847,0,1,394
38,2,18788,348732,0,1,426
38,1,18788,367610,1,0,1010
38,1,18788,371462,1,1,993
38,1,18788,374600,3,1,513
38,1,18788,377738,3,1,1904
38,1,18788,381607,1,1,1015
38,1,18788,385160,3,1,624
38,1,18788,387816,3,1,1429
38,1,18788,391486,2,1,1946
38,1,18788,396201,2,1,793
39,2,79208,88540,0,1,355
39,2,79208,91129,0,1,451
39,2,79208,93720,0,1,419
39,2,79208,96476,0,1,326
39,2,79208,100145,0,1,319
39,2,79208,103399,0,1,448
39,2,79208,107583,0,1,462
39,2,79208,110987,0,1,325
39,2,79208,114357,0,1,412
39,2,79208,116815,0,1,450
39,1,79208,136324,2,1,1911
39,1,79208,141072,1,1,1520
39,1,79208,144924,3,0,1105
39,1,79208,148461,3,1,907
39,1,79208,152595,1,1,723
39,1,79208,156148,3,1,1144
39,1,79208,160232,1,0,1257
39,1,79208,163437,2,1,1873
39,2,79208,185054,0,1,395
39,2,79208,188093,0,1,286
39,2,79208,190616,0,1,482
39,2,79208,193339,0,1,516
39,2,79208,195996,0,1,429
39,2,79208,199068,0,1,390
39,2,79208,202289,0,1,472
39,2,79208,204596,0,1,449
39,2,79208,207386,0,1,491
39,2,79208,210109,0,1,531
39,2,79208,212881,0,1,341
39,1,79208,232175,3,1,1086
39,1,79208,235495,3,1,833
39,1,79208,238965,2,1,1791
39,1,79208,244179,2,0,1325
39,1,79208,249044,3,1,1345
39,1,79208,253626,2,1,1590
39,1,79208,258159,2,1,1205
39,2,79208,279013,0,1,394
39,2,79208,282748,0,1,404
39,2,79208,285986,0,1,515
39,2,79208,288642,0,1,478
39,2,79208,291863,0,1,437
39,2,79208,294337,0,1,409
39,2,79208,298687,0,1,456
39,2,79208,302473,0,1,400
39,2,79208,305511,0,1,562
39,2,79208,308716,0,1,443
39,1,79208,328822,2,1,947
39,1,79208,331512,2,1,854
39,1,79208,335198,1,0,1078
39,1,79208,339316,1,0,1000
39,1,79208,343848,2,1,1193
39,1,79208,347485,1,1,1424
39,1,79208,351453,1,1,1430
39,1,79208,356019,3,1,1143
39,2,79208,376324,0,1,1220
39,2,79208,379878,0,1,448
39,2,79208,383663,0,1,995
39,2,79208,387598,0,1,346
39,2,79208,390288,0,1,543
39,2,79208,392679,0,1,425
39,2,79208,395535,0,1,373
39,2,79208,398955,0,1,662
39,2,79208,402060,0,1,560
39,2,79208,406061,0,1,437
39,1,79208,424956,1,1,915
39,1,79208,428708,1,1,1008
39,1,79208,431863,3,1,1308
39,1,79208,435814,3,0,1464
39,1,79208,439220,1,1,961
39,1,79208,442721,3,0,1328
39,1,79208,446092,3,1,984
39,1,79208,449313,2,1,1158
39,1,79208,453214,2,0,1076
304,2,117831,127179,0,1,380
304,2,117831,129802,0,1,460
304,2,117831,132392,0,1,266
304,2,117831,134999,0,1,317
304,2,117831,138652,0,1,243
304,2,117831,141923,0,0,265
304,2,117831,145924,0,1,328
304,2,117831,149178,0,1,332
304,2,117831,152549,0,1,311
304,2,117831,154907,0,1,400
304,1,117831,174366,2,0,351
304,1,117831,177553,1,0,804
304,1,117831,180691,3,1,934
304,1,117831,184062,3,1,971
304,1,117831,188263,1,1,749
304,1,117831,191849,3,1,779
304,1,117831,195568,1,1,891
304,1,117831,198407,2,1,961
304,1,117831,202608,1,0,877
304,2,117831,222283,0,1,1132
304,2,117831,226085,0,1,353
304,2,117831,228708,0,1,339
304,2,117831,231315,0,1,343
304,2,117831,233822,0,1,501
304,2,117831,237010,0,1,422
304,2,117831,240331,0,1,319
304,2,117831,242539,0,1,471
304,2,117831,245411,0,1,333
304,2,117831,248034,0,1,342
304,2,117831,250658,0,1,387
304,1,117831,270001,3,1,492
304,1,117831,272740,3,1,586
304,1,117831,275961,2,0,547
304,1,117831,279946,2,1,820
304,1,117831,284296,3,1,649
304,1,117831,288181,2,1,595
304,1,117831,291701,2,0,854
304,1,117831,295686,1,1,947
304,1,117831,298276,1,1,1112
304,2,117831,318997,0,1,926
304,2,117831,323297,0,1,289
304,2,117831,326452,0,1,383
304,2,117831,329009,0,1,284
304,2,117831,332080,0,0,499
304,2,117831,334654,0,1,357
304,2,117831,338971,0,1,373
304,2,117831,342707,0,1,452
304,2,117831,345828,0,1,377
304,2,117831,348916,0,1,376
304,1,117831,368940,2,1,1074
304,1,117831,371762,2,1,905
304,1,117831,375548,1,0,1009
304,1,117831,379599,1,1,1306
304,1,117831,384447,2,1,958
304,1,117831,387851,1,1,911
304,1,117831,391304,1,1,938
304,1,117831,395389,3,1,616
304,1,117831,398643,3,1,810
304,2,117831,418866,0,1,831
304,2,117831,422120,0,1,376
304,2,117831,425856,0,1,421
304,2,117831,429243,0,1,455
304,2,117831,432065,0,1,383
304,2,117831,434324,0,1,385
304,2,117831,437196,0,1,431
304,2,117831,440716,0,1,364
304,2,117831,443555,0,1,508
304,2,117831,447556,0,1,374
304,1,117831,466401,1,1,1650
304,1,117831,470884,1,0,978
304,1,117831,474005,3,1,669
304,1,117831,477309,3,1,848
304,1,117831,480115,1,1,1117
304,1,117831,483768,3,1,832
304,1,117831,486641,3,1,619
304,1,117831,489496,2,1,559
304,1,117831,492817,2,1,877
304,1,117831,496138,1,1,682
314,2,61478,70809,0,1,527
314,2,61478,73581,0,1,789
314,2,61478,76504,0,1,783
314,2,61478,79625,0,1,526
314,2,61478,83494,0,1,530
314,2,61478,86964,0,1,502
314,2,61478,91198,0,1,614
314,2,61478,94751,0,1,968
314,2,61478,98752,0,1,573
314,1,61478,117880,2,1,1549
314,1,61478,122263,1,1,1478
314,1,61478,126082,3,1,983
314,1,61478,129502,3,1,1130
314,1,61478,133869,1,0,1498
314,1,61478,138202,3,1,1514
314,1,61478,142652,1,1,2068
314,1,61478,146653,2,1,2515
314,2,61478,168902,0,1,716
314,2,61478,172256,0,1,471
314,2,61478,174979,0,1,434
314,2,61478,177652,0,1,581
314,2,61478,180375,0,1,434
314,2,61478,183447,0,1,544
314,2,61478,186834,0,1,741
314,2,61478,189407,0,1,469
314,2,61478,192214,0,1,654
314,2,61478,195103,0,1,468
314,2,61478,197809,0,1,663
314,1,61478,217434,3,1,1034
314,1,61478,220705,3,1,1327
314,1,61478,224673,2,1,1472
314,1,61478,229588,2,1,2633
314,1,61478,235615,3,1,1247
314,1,61478,240098,2,1,1315
314,1,61478,244348,2,1,1203
314,2,61478,265202,0,1,991
314,2,61478,269519,0,1,682
314,2,61478,273039,0,1,751
314,2,61478,275928,0,1,625
314,2,61478,279282,0,1,486
314,2,61478,281806,0,1,678
314,2,61478,286422,0,1,601
314,2,61478,290357,0,1,808
314,2,61478,293810,0,1,820
314,1,61478,313784,2,1,1005
314,1,61478,316524,2,1,1347
314,1,61478,320708,1,1,2256
314,1,61478,326005,1,0,1417
314,1,61478,330952,2,1,1638
314,1,61478,335037,1,1,1993
314,1,61478,339570,1,1,1949
314,2,61478,361171,0,1,580
314,2,61478,364093,0,1,563
314,2,61478,367995,0,1,598
314,2,61478,371531,0,1,792
314,2,61478,374686,0,1,1087
314,2,61478,377625,0,1,898
314,2,61478,380962,0,1,845
314,2,61478,384847,0,1,543
314,2,61478,387836,0,1,614
314,1,61478,408408,1,1,1256
314,1,61478,412509,1,1,1454
314,1,61478,416095,3,1,1321
314,1,61478,420063,3,1,1316
314,1,61478,423318,1,0,1803
314,1,61478,427651,3,1,1634
314,1,61478,431321,3,1,1417
314,1,61478,434973,2,1,1739
318,2,66240,75571,0,1,402
318,2,66240,78211,0,1,397
318,2,66240,80752,0,1,434
318,2,66240,83525,0,1,460
318,2,66240,87327,0,1,390
318,2,66240,90647,0,1,313
318,2,66240,94699,0,1,321
318,2,66240,97953,0,1,370
318,2,66240,101357,0,1,387
318,2,66240,103781,0,1,397
318,1,66240,123256,2,0,1290
318,1,66240,127374,1,0,1801
318,1,66240,131508,3,0,1800
318,1,66240,135742,3,1,1181
318,1,66240,140159,1,1,1357
318,1,66240,144359,3,1,1531
318,1,66240,148826,1,1,2044
318,1,66240,152794,2,1,1129
318,2,66240,173681,0,1,371
318,2,66240,176703,0,1,433
318,2,66240,179376,0,1,426
318,2,66240,182032,0,1,356
318,2,66240,184523,0,1,346
318,2,66240,187512,0,1,318
318,2,66240,190666,0,1,364
318,2,66240,192858,0,0,438
318,2,66240,195631,0,1,396
318,2,66240,198271,0,1,429
318,2,66240,200927,0,1,357
318,1,66240,220237,3,1,1265
318,1,66240,223740,3,1,883
318,1,66240,227260,2,0,1585
318,1,66240,232274,2,1,1081
318,1,66240,236890,3,1,1106
318,1,66240,241240,2,0,1285
318,1,66240,245474,2,1,1254
318,1,66240,249857,1,0,1440
318,2,66240,269466,0,1,397
318,2,66240,273202,0,1,376
318,2,66240,276423,0,1,549
318,2,66240,279113,0,1,349
318,2,66240,282201,0,1,395
318,2,66240,284642,0,1,408
318,2,66240,288992,0,1,509
318,2,66240,292844,0,1,393
318,2,66240,295882,0,1,461
318,2,66240,298987,0,1,393
318,1,66240,319027,2,1,1792
318,1,66240,322564,2,1,1466
318,1,66240,326864,1,1,1630
318,1,66240,331530,1,0,1584
318,1,66240,336643,2,1,1033
318,1,66240,340114,1,0,1098
318,1,66240,343750,1,1,1736
318,1,66240,348615,3,1,1363
318,2,66240,369136,0,1,388
318,2,66240,371859,0,1,400
318,2,66240,375595,0,1,423
318,2,66240,378949,0,1,369
318,2,66240,381655,0,1,417
318,2,66240,383913,0,1,457
318,2,66240,386802,0,1,338
318,2,66240,390190,0,1,380
318,2,66240,393012,0,1,347
318,2,66240,396798,0,1,433
318,1,66240,415692,1,1,1132
318,1,66240,419661,1,1,1115
318,1,66240,422915,3,1,1648
318,1,66240,427199,3,1,1426
318,1,66240,430569,1,1,811
318,1,66240,433923,3,1,1184
318,1,66240,437144,3,1,864
318,1,66240,440249,2,0,1799
318,1,66240,444782,2,1,1294
322,2,16100,25514,0,1,642
322,2,16100,28387,0,1,546
322,2,16100,31077,0,1,473
322,2,16100,33883,0,1,689
322,2,16100,37901,0,1,524
322,2,16100,41354,0,1,529
322,2,16100,45605,0,1,494
322,2,16100,49042,0,1,579
322,2,16100,52661,0,1,537
322,2,16100,55235,0,1,653
322,1,16100,74943,2,1,1905
322,1,16100,79692,1,1,1442
322,1,16100,83477,3,1,1785
322,1,16100,87711,3,1,977
322,1,16100,91928,1,0,1494
322,1,16100,96262,3,0,1246
322,1,16100,100446,1,1,1122
322,1,16100,103501,2,1,1264
322,2,16100,124521,0,1,640
322,2,16100,127809,0,1,639
322,2,16100,130681,0,1,607
322,2,16100,133520,0,1,525
322,2,16100,136177,0,1,511
322,2,16100,139331,0,1,521
322,2,16100,142685,0,1,484
322,2,16100,145010,0,1,547
322,2,16100,147899,0,1,593
322,2,16100,150738,0,1,515
322,2,16100,153498,0,1,482
322,1,16100,172937,3,1,794
322,1,16100,175975,3,1,764
322,1,16100,179379,2,0,1264
322,1,16100,184078,2,1,1198
322,1,16100,188810,3,1,1080
322,1,16100,193127,2,1,1662
322,1,16100,197726,2,1,1565
322,1,16100,202425,1,1,1613
322,2,16100,222199,0,1,568
322,2,16100,226101,0,1,516
322,2,16100,229455,0,1,597
322,2,16100,232195,0,1,724
322,2,16100,235665,0,1,668
322,2,16100,238371,0,1,695
322,2,16100,243004,0,1,751
322,2,16100,247088,0,1,810
322,2,16100,250525,0,1,863
322,1,16100,270549,2,1,1090
322,1,16100,273371,2,1,900
322,1,16100,277107,1,1,1330
322,1,16100,281474,1,1,1231
322,1,16100,286239,2,1,1563
322,1,16100,290240,1,1,1569
322,1,16100,294341,1,1,1251
322,1,16100,298725,3,1,915
322,2,16100,318798,0,1,748
322,2,16100,321887,0,1,512
322,2,16100,325739,0,1,485
322,2,16100,329159,0,1,529
322,2,16100,332031,0,1,689
322,2,16100,334555,0,1,537
322,2,16100,337544,0,1,477
322,2,16100,341064,0,1,849
322,2,16100,344351,0,1,513
322,2,16100,348303,0,1,591
322,1,16100,367364,1,1,1072
322,1,16100,371265,1,1,1514
322,1,16100,374918,3,1,1327
322,1,16100,378886,3,0,1137
322,1,16100,381975,1,1,1045
322,1,16100,385561,3,0,1572
322,1,16100,389181,3,1,850
322,1,16100,392269,2,1,1065
322,1,16100,396071,2,1,1092
327,2,58057,67472,0,1,544
327,2,58057,70261,0,1,408
327,2,58057,72818,0,1,518
327,2,58057,75674,0,1,518
327,2,58057,79526,0,1,469
327,2,58057,82929,0,1,463
327,2,58057,87130,0,1,536
327,2,58057,90600,0,1,478
327,2,58057,94120,0,1,465
327,2,58057,96627,0,1,476
327,1,58057,116170,2,1,1654
327,1,58057,120669,1,1,2714
327,1,58057,125501,3,1,1360
327,1,58057,129303,3,1,1269
327,1,58057,133803,1,1,1835
327,1,58057,138485,3,1,1481
327,1,58057,142901,1,0,2317
327,2,58057,163689,0,1,450
327,2,58057,166777,0,1,352
327,2,58057,169367,0,1,469
327,2,58057,172074,0,1,392
327,2,58057,174614,0,1,384
327,2,58057,177636,0,1,424
327,2,58057,180890,0,1,437
327,2,58057,183165,0,1,416
327,2,58057,185921,0,1,340
327,2,58057,188495,0,1,612
327,2,58057,191350,0,1,578
327,1,58057,210876,3,1,641
327,1,58057,213765,3,1,1715
327,1,58057,218115,2,1,1345
327,1,58057,222897,2,1,1596
327,1,58057,228027,3,1,1257
327,1,58057,232527,2,1,1457
327,1,58057,236910,2,0,2315
327,2,58057,258877,0,1,505
327,2,58057,262729,0,1,491
327,2,58057,266066,0,1,443
327,2,58057,268656,0,1,504
327,2,58057,271894,0,1,592
327,2,58057,274534,0,1,478
327,2,58057,278950,0,1,569
327,2,58057,282852,0,1,526
327,2,58057,286023,0,1,471
327,1,58057,305649,2,1,1208
327,1,58057,308604,2,1,1584
327,1,58057,313021,1,1,2119
327,1,58057,318168,1,1,1385
327,1,58057,323099,2,1,1598
327,1,58057,327134,1,0,1550
327,1,58057,331235,1,1,1848
327,2,58057,352753,0,1,973
327,2,58057,356057,0,1,408
327,2,58057,359793,0,1,533
327,2,58057,363263,0,1,422
327,2,58057,366019,0,1,474
327,2,58057,368344,0,1,1652
327,2,58057,372428,0,1,533
327,2,58057,375998,0,1,408
327,2,58057,378837,0,1,494
327,2,58057,382755,0,1,545
327,1,58057,401783,1,1,2102
327,1,58057,406715,1,1,2597
327,1,58057,411347,3,1,1216
327,1,58057,415199,3,1,975
327,1,58057,418121,1,1,1035
327,1,58057,421691,3,1,1292
327,1,58057,425028,3,1,966
327,1,58057,428232,2,1,1022
333,2,13577,22924,0,1,390
333,2,13577,25564,0,1,348
333,2,13577,28055,0,1,421
333,2,13577,30811,0,1,377
333,2,13577,34514,0,1,438
333,2,13577,37884,0,1,434
333,2,13577,42052,0,1,474
333,2,13577,45472,0,1,610
333,2,13577,49108,0,1,505
333,2,13577,51665,0,1,484
333,1,13577,71207,2,1,1472
333,1,13577,75508,1,0,1218
333,1,13577,79061,3,1,1127
333,1,13577,82631,3,1,1146
333,1,13577,87014,1,1,1365
333,1,13577,91214,3,1,1195
333,1,13577,95349,1,0,1616
333,1,13577,98902,2,1,1414
333,2,13577,120071,0,1,488
333,2,13577,123193,0,1,396
333,2,13577,125833,0,1,489
333,2,13577,128556,0,1,661
333,2,13577,131362,0,1,507
333,2,13577,134516,0,1,506
333,2,13577,137903,0,1,779
333,2,13577,140527,0,1,563
333,2,13577,143432,0,1,476
333,2,13577,146139,0,1,431
333,2,13577,148862,0,1,438
333,1,13577,168254,3,1,1495
333,1,13577,171990,3,1,1178
333,1,13577,175809,2,1,1757
333,1,13577,180989,2,1,1305
333,1,13577,185821,3,1,1445
333,1,13577,190503,2,1,1753
333,1,13577,195202,2,1,1535
333,2,13577,216404,0,1,338
333,2,13577,220090,0,1,520
333,2,13577,223444,0,1,613
333,2,13577,226200,0,1,483
333,2,13577,229471,0,1,459
333,2,13577,231962,0,1,1398
333,2,13577,237292,0,1,479
333,2,13577,241110,0,1,545
333,2,13577,244282,0,1,643
333,1,13577,264089,2,1,1666
333,1,13577,267493,2,1,990
333,1,13577,271312,1,1,980
333,1,13577,275330,1,1,1393
333,1,13577,280261,2,1,1099
333,1,13577,283798,1,1,1278
333,1,13577,287617,1,1,1137
333,1,13577,291900,3,1,1637
333,2,13577,312688,0,1,465
333,2,13577,315494,0,1,421
333,2,13577,319246,0,1,371
333,2,13577,322550,0,1,429
333,2,13577,325356,0,1,390
333,2,13577,327581,0,1,338
333,2,13577,330354,0,1,389
333,2,13577,333774,0,1,402
333,2,13577,336613,0,1,364
333,2,13577,340415,0,1,431
333,1,13577,359310,1,1,1220
333,1,13577,363361,1,0,1946
333,1,13577,367446,3,1,1617
333,1,13577,371696,3,1,1286
333,1,13577,374934,1,1,1716
333,1,13577,379185,3,1,1273
333,1,13577,382473,3,1,1680
333,1,13577,386390,2,1,2443
334,2,11134,20465,0,1,439
334,2,11134,23138,0,1,422
334,2,11134,25695,0,1,422
334,2,11134,28451,0,1,389
334,2,11134,32171,0,1,738
334,2,11134,35840,0,1,607
334,2,11134,40173,0,1,442
334,2,11134,43544,0,1,645
334,2,11134,47230,0,1,527
334,2,11134,49803,0,1,506
334,1,11134,69362,2,1,1351
334,1,11134,73546,1,0,2013
334,1,11134,77896,3,1,1345
334,1,11134,81682,3,1,1044
334,1,11134,85949,1,1,1525
334,1,11134,90315,3,1,922
334,1,11134,94167,1,1,1299
334,1,11134,97405,2,0,1319
334,2,11134,118508,0,1,493
334,2,11134,121663,0,1,487
334,2,11134,124419,0,1,468
334,2,11134,127175,0,1,415
334,2,11134,129765,0,1,602
334,2,11134,133053,0,1,664
334,2,11134,136606,0,1,527
334,2,11134,139030,0,1,567
334,2,11134,142002,0,1,498
334,2,11134,144775,0,1,559
334,2,11134,147614,0,1,553
334,1,11134,167123,3,1,654
334,1,11134,170012,3,1,800
334,1,11134,173449,2,1,882
334,1,11134,177765,2,1,1616
334,1,11134,182912,3,1,1092
334,1,11134,187246,2,1,1123
334,1,11134,191314,2,1,1221
334,1,11134,195664,1,1,961
334,2,11134,214841,0,1,369
334,2,11134,218576,0,1,475
334,2,11134,221930,0,1,518
334,2,11134,224620,0,1,550
334,2,11134,227974,0,1,455
334,2,11134,230498,0,1,562
334,2,11134,235047,0,1,579
334,2,11134,239015,0,1,497
334,2,11134,242186,0,1,527
334,1,11134,261878,2,1,450
334,1,11134,264070,2,1,1089
334,1,11134,268071,1,0,1414
334,1,11134,272521,1,1,2528
334,1,11134,278548,2,1,1644
334,1,11134,282632,1,1,1394
334,1,11134,286567,1,1,840
334,1,11134,290535,3,1,1414
334,2,11134,311157,0,1,431
334,2,11134,313996,0,1,410
334,2,11134,317782,0,1,401
334,2,11134,321152,0,1,441
334,2,11134,323958,0,1,580
334,2,11134,326415,0,1,481
334,2,11134,329404,0,1,364
334,2,11134,332874,0,1,419
334,2,11134,335763,0,1,421
334,2,11134,339665,0,1,667
334,1,11134,358792,1,1,894
334,1,11134,362528,1,1,1055
334,1,11134,365732,3,1,1003
334,1,11134,369368,3,1,1764
334,1,11134,373105,1,1,990
334,1,11134,376641,3,0,1938
334,1,11134,380625,3,1,982
334,1,11134,383846,2,1,1933
334,1,11134,388529,2,0,1536
337,2,57481,66812,0,1,1196
337,2,57481,70249,0,1,495
337,2,57481,72872,0,1,539
337,2,57481,75745,0,1,514
337,2,57481,79597,0,1,696
337,2,57481,83233,0,1,562
337,2,57481,87533,0,1,562
337,2,57481,91036,0,1,594
337,2,57481,94656,0,1,663
337,1,57481,113883,2,1,2481
337,1,57481,119212,1,1,1128
337,1,57481,122682,3,1,1719
337,1,57481,126833,3,1,1026
337,1,57481,131100,1,1,1205
337,1,57481,135152,3,1,796
337,1,57481,138887,1,1,824
337,1,57481,141660,2,1,1399
337,2,57481,162813,0,1,449
337,2,57481,165901,0,1,547
337,2,57481,168690,0,1,587
337,2,57481,171513,0,1,518
337,2,57481,174170,0,1,595
337,2,57481,177407,0,1,595
337,2,57481,180894,0,1,527
337,2,57481,183268,0,1,541
337,2,57481,186141,0,1,544
337,2,57481,188930,0,1,487
337,2,57481,191653,0,1,613
337,1,57481,211228,3,1,1286
337,1,57481,214748,3,1,874
337,1,57481,218251,2,1,900
337,1,57481,222585,2,1,1030
337,1,57481,227151,3,1,873
337,1,57481,231252,2,1,1424
337,1,57481,235602,2,1,1142
337,1,57481,239886,1,1,987
337,2,57481,259029,0,1,472
337,2,57481,262832,0,1,622
337,2,57481,266285,0,1,708
337,2,57481,269124,0,1,478
337,2,57481,272395,0,1,556
337,2,57481,274985,0,1,536
337,2,57481,279452,0,1,498
337,2,57481,283320,0,1,976
337,2,57481,286940,0,1,509
337,1,57481,306615,2,1,1118
337,1,57481,309471,2,1,715
337,1,57481,313024,1,1,775
337,1,57481,316842,1,1,786
337,1,57481,321159,2,1,1253
337,1,57481,324862,1,1,1906
337,1,57481,329312,1,1,1189
337,1,57481,333645,3,1,874
337,2,57481,353685,0,1,715
337,2,57481,356740,0,1,482
337,2,57481,360559,0,1,499
337,2,57481,363996,0,1,732
337,2,57481,367101,0,1,653
337,2,57481,369625,0,1,584
337,2,57481,372646,0,1,532
337,2,57481,376216,0,1,460
337,2,57481,379122,0,1,569
337,2,57481,383123,0,1,533
337,1,57481,402117,1,1,1852
337,1,57481,406816,1,1,1123
337,1,57481,410087,3,1,988
337,1,57481,413707,3,1,793
337,1,57481,416430,1,1,1274
337,1,57481,420248,3,1,1341
337,1,57481,423619,3,1,1053
337,1,57481,426906,2,1,1115
337,1,57481,430825,2,1,604
1,1,25575,34906,2,1,1036
1,1,25575,38858,1,1,899
1,1,25575,42096,3,0,700
1,1,25575,45234,3,0,900
1,1,25575,49368,1,1,745
1,1,25575,52954,3,1,793
1,1,25575,56674,1,1,614
1,1,25575,59231,2,1,789
1,1,25575,63265,1,0,664
1,2,25575,82691,0,1,419
1,2,25575,85348,0,1,413
1,2,25575,87905,0,1,415
1,2,25575,90661,0,1,323
1,2,25575,94314,0,1,540
1,2,25575,97800,0,1,388
1,2,25575,101918,0,1,403
1,2,25575,105255,0,1,358
1,2,25575,108659,0,1,451
1,2,25575,111150,0,1,469
1,1,25575,130725,3,1,503
1,1,25575,133498,3,1,515
1,1,25575,136686,2,1,553
1,1,25575,140720,2,1,432
1,1,25575,144738,3,1,525
1,1,25575,148557,2,1,452
1,1,25575,151994,2,1,487
1,1,25575,155664,1,0,650
1,1,25575,157988,1,0,637
1,2,25575,178194,0,1,360
1,2,25575,181200,0,1,366
1,2,25575,183806,0,1,354
1,2,25575,186397,0,1,332
1,2,25575,188870,0,1,401
1,2,25575,191959,0,1,453
1,2,25575,195246,0,1,416
1,2,25575,197504,0,1,414
1,2,25575,200260,0,1,388
1,2,25575,202884,0,1,398
1,2,25575,205574,0,1,438
1,1,25575,225016,2,1,492
1,1,25575,227274,2,1,890
1,1,25575,231060,1,1,689
1,1,25575,234846,1,1,661
1,1,25575,239096,2,1,433
1,1,25575,241985,1,1,565
1,1,25575,245123,1,1,578
1,1,25575,248909,3,0,524
1,1,25575,252130,3,0,582
1,2,25575,272104,0,1,382
1,2,25575,275823,0,1,332
1,2,25575,278994,0,1,363
1,2,25575,281501,0,1,504
1,2,25575,284739,0,1,424
1,2,25575,287229,0,1,545
1,2,25575,291712,0,1,420
1,2,25575,295465,0,1,422
1,2,25575,298520,0,1,373
1,2,25575,301525,0,1,467
1,1,25575,321715,1,1,596
1,1,25575,325185,1,1,427
1,1,25575,327792,3,1,500
1,1,25575,330980,3,1,400
1,1,25575,333354,1,1,561
1,1,25575,336492,3,1,407
1,1,25575,338966,3,1,613
1,1,25575,341888,2,0,583
1,1,25575,345242,2,0,426
1,1,25575,348164,1,0,545
1,1,25575,351302,2,0,552
1,2,25575,371409,0,1,430
1,2,25575,374182,0,1,500
1,2,25575,378017,0,1,368
1,2,25575,381321,0,1,508
1,2,25575,384161,0,1,374
1,2,25575,386402,0,1,377
1,2,25575,389225,0,1,426
1,2,25575,392695,0,1,324
1,2,25575,395468,0,1,497
1,2,25575,399403,0,1,375
7,1,62976,72307,2,1,1651
7,1,62976,76790,1,1,1276
7,1,62976,80393,3,1,1434
7,1,62976,84261,3,1,1230
7,1,62976,88727,1,0,1173
7,1,62976,92745,3,1,1079
7,1,62976,96764,1,1,857
7,1,62976,99553,2,0,1179
7,2,62976,120490,0,1,419
7,2,62976,123146,0,1,770
7,2,62976,126052,0,1,494
7,2,62976,128891,0,1,472
7,2,62976,132693,0,1,500
7,2,62976,136130,0,1,507
7,2,62976,140364,0,1,542
7,2,62976,143834,0,1,416
7,2,62976,147288,0,1,513
7,2,62976,149845,0,1,513
7,1,62976,169420,3,1,567
7,1,62976,172226,3,1,852
7,1,62976,175713,2,0,786
7,1,62976,179930,2,1,916
7,1,62976,184380,3,1,1076
7,1,62976,188680,2,1,642
7,1,62976,192250,2,0,638
7,1,62976,196035,1,0,701
7,1,62976,198376,1,0,1025
7,2,62976,218964,0,1,1537
7,2,62976,223148,0,1,514
7,2,62976,225905,0,1,521
7,2,62976,228661,0,1,514
7,2,62976,231317,0,1,540
7,2,62976,234488,0,1,614
7,2,62976,237942,0,1,779
7,2,62976,240565,0,1,514
7,2,62976,243421,0,1,1252
7,2,62976,246908,0,1,1442
7,1,62976,267114,2,1,1141
7,1,62976,270003,2,1,984
7,1,62976,273822,1,0,1087
7,1,62976,277956,1,0,714
7,1,62976,282207,2,1,996
7,1,62976,285643,1,1,1152
7,1,62976,289329,1,1,630
7,1,62976,293098,3,1,1017
7,1,62976,296751,3,1,965
7,2,62976,317074,0,1,1713
7,2,62976,322121,0,1,739
7,2,62976,325691,0,1,749
7,2,62976,328580,0,1,368
7,2,62976,331685,0,1,379
7,2,62976,334109,0,1,400
7,2,62976,338442,0,1,435
7,2,62976,342211,0,1,458
7,2,62976,345299,0,1,590
7,1,62976,365041,1,1,771
7,1,62976,368660,1,1,1166
7,1,62976,371964,3,1,859
7,1,62976,375468,3,1,694
7,1,62976,378091,1,0,785
7,1,62976,381412,3,1,758
7,1,62976,384234,3,1,1025
7,1,62976,387489,2,1,1002
7,1,62976,391224,2,0,945
7,1,62976,394611,1,1,1411
7,2,62976,415083,0,1,473
7,2,62976,417889,0,1,364
7,2,62976,421592,0,1,560
7,2,62976,425079,0,1,544
7,2,62976,427968,0,1,399
7,2,62976,430209,0,1,498
7,2,62976,433148,0,0,0
7,2,62976,438677,0,0,0
7,2,62976,443608,0,0,0
15,1,15809,25156,2,1,1159
15,1,15809,29158,1,1,1250
15,1,15809,32744,3,1,1016
15,1,15809,36198,3,1,1164
15,1,15809,40598,1,1,1035
15,1,15809,44466,3,1,1128
15,1,15809,48534,1,0,1368
15,1,15809,51822,2,0,1516
15,2,15809,73091,0,1,620
15,2,15809,75946,0,1,510
15,2,15809,78603,0,1,496
15,2,15809,81442,0,1,517
15,2,15809,85294,0,1,645
15,2,15809,88880,0,1,514
15,2,15809,93131,0,1,527
15,2,15809,96601,0,1,463
15,2,15809,100104,0,1,489
15,2,15809,102612,0,1,459
15,1,15809,122137,3,1,1280
15,1,15809,125657,3,1,1338
15,1,15809,129625,2,1,1759
15,1,15809,134822,2,1,1473
15,1,15809,139836,3,1,1464
15,1,15809,144535,2,0,1122
15,1,15809,148603,2,1,1137
15,2,15809,169407,0,1,687
15,2,15809,172728,0,1,419
15,2,15809,175385,0,1,651
15,2,15809,178274,0,1,494
15,2,15809,180897,0,1,372
15,2,15809,183919,0,1,425
15,2,15809,187190,0,1,410
15,2,15809,189448,0,1,436
15,2,15809,192220,0,1,436
15,2,15809,194894,0,1,415
15,2,15809,197550,0,1,357
15,1,15809,216860,2,1,966
15,1,15809,219550,2,1,1304
15,1,15809,223701,1,1,1294
15,1,15809,228034,1,1,1403
15,1,15809,232965,2,1,1439
15,1,15809,236834,1,0,2047
15,1,15809,241417,1,1,1369
15,1,15809,245916,3,1,1584
15,2,15809,266654,0,1,420
15,2,15809,270406,0,1,470
15,2,15809,273710,0,1,413
15,2,15809,276267,0,1,481
15,2,15809,279488,0,1,434
15,2,15809,281962,0,1,356
15,2,15809,286246,0,1,279
15,2,15809,289865,0,1,386
15,2,15809,292887,0,1,650
15,2,15809,296175,0,1,520
15,1,15809,316348,1,0,1004
15,1,15809,320200,1,1,1006
15,1,15809,323355,3,1,1458
15,1,15809,327456,3,1,773
15,1,15809,330146,1,1,875
15,1,15809,333549,3,1,1223
15,1,15809,336804,3,1,1196
15,1,15809,340240,2,0,1704
15,1,15809,344674,2,1,1954
15,2,15809,365594,0,1,400
15,2,15809,368334,0,1,412
15,2,15809,372086,0,1,417
15,2,15809,375440,0,0,317
15,2,15809,378096,0,1,426
15,2,15809,380354,0,1,464
15,2,15809,383260,0,1,581
15,2,15809,386880,0,1,607
15,2,15809,389935,0,1,628
15,2,15809,394003,0,1,455
16,1,54693,64024,2,1,1473
16,1,54693,68424,1,1,1417
16,1,54693,72177,3,0,1445
16,1,54693,76062,3,1,1179
16,1,54693,80478,1,0,1228
16,1,54693,84546,3,0,1705
16,1,54693,89195,1,1,1482
16,1,54693,92615,2,1,1360
16,2,54693,113735,0,1,852
16,2,54693,116823,0,1,668
16,2,54693,119629,0,1,677
16,2,54693,122651,0,1,590
16,2,54693,126569,0,1,650
16,2,54693,130156,0,1,575
16,2,54693,134473,0,1,530
16,2,54693,137943,0,1,560
16,2,54693,141529,0,1,498
16,1,54693,160656,3,1,805
16,1,54693,163728,3,1,1126
16,1,54693,167546,2,1,927
16,1,54693,171963,2,1,1194
16,1,54693,176745,3,1,888
16,1,54693,180929,2,1,814
16,1,54693,184748,2,1,900
16,1,54693,188832,1,1,899
16,2,54693,207893,0,1,772
16,2,54693,211313,0,1,654
16,2,54693,214235,0,1,659
16,2,54693,217141,0,1,588
16,2,54693,219864,0,1,777
16,2,54693,223334,0,1,681
16,2,54693,226854,0,1,929
16,2,54693,229626,0,1,639
16,2,54693,232598,0,1,477
16,2,54693,235305,0,1,629
16,1,54693,254731,2,1,1192
16,1,54693,257703,2,1,875
16,1,54693,261488,1,1,1220
16,1,54693,265805,1,1,968
16,1,54693,270371,2,0,913
16,1,54693,273758,1,0,938
16,1,54693,277262,1,0,975
16,1,54693,281429,3,1,1139
16,2,54693,301785,0,1,673
16,2,54693,305786,0,1,527
16,2,54693,309157,0,1,591
16,2,54693,311880,0,1,610
16,2,54693,315233,0,1,641
16,2,54693,317940,0,1,495
16,2,54693,322373,0,1,495
16,2,54693,326208,0,1,659
16,2,54693,329512,0,1,524
16,1,54693,349254,1,1,1143
16,1,54693,353288,1,1,1226
16,1,54693,356692,3,1,1337
16,1,54693,360710,3,0,1409
16,1,54693,364097,1,1,890
16,1,54693,367567,3,1,1058
16,1,54693,370689,3,1,1080
16,1,54693,374076,2,1,1026
16,1,54693,377878,2,1,1109
16,2,54693,397951,0,1,602
16,2,54693,400890,0,1,561
16,2,54693,404775,0,1,551
16,2,54693,408312,0,1,643
16,2,54693,411301,0,1,675
16,2,54693,413857,0,1,950
16,2,54693,417245,0,1,939
16,2,54693,421246,0,1,724
16,2,54693,424401,0,1,650
21,1,50547,59894,2,1,1485
21,1,50547,64211,1,1,2174
21,1,50547,68727,3,1,1810
21,1,50547,72978,3,1,1930
21,1,50547,78141,1,0,1889
21,1,50547,82873,3,1,1083
21,1,50547,86891,1,0,2608
21,2,50547,107845,0,1,632
21,2,50547,110717,0,1,423
21,2,50547,113274,0,1,470
21,2,50547,116080,0,1,650
21,2,50547,120065,0,1,428
21,2,50547,123419,0,1,443
21,2,50547,127603,0,1,474
21,2,50547,131023,0,1,482
21,2,50547,134543,0,1,471
21,2,50547,137050,0,1,497
21,1,50547,156608,3,1,1178
21,1,50547,160029,3,1,1315
21,1,50547,163980,2,1,1048
21,1,50547,168463,2,1,1343
21,1,50547,173345,3,1,1530
21,1,50547,178110,2,1,1533
21,1,50547,182576,2,1,1278
21,2,50547,203513,0,1,429
21,2,50547,206584,0,1,461
21,2,50547,209291,0,1,518
21,2,50547,212047,0,1,512
21,2,50547,214703,0,1,442
21,2,50547,217775,0,1,542
21,2,50547,221162,0,1,395
21,2,50547,223387,0,1,433
21,2,50547,226160,0,1,438
21,2,50547,228833,0,1,391
21,2,50547,231473,0,1,458
21,1,50547,250899,2,1,1482
21,1,50547,254120,2,1,1547
21,1,50547,258503,1,0,1402
21,1,50547,262953,1,0,1983
21,1,50547,268465,2,1,1350
21,1,50547,272267,1,1,2439
21,1,50547,277248,1,1,1244
21,2,50547,298152,0,1,729
21,2,50547,302219,0,1,379
21,2,50547,305424,0,1,590
21,2,50547,308147,0,1,510
21,2,50547,311401,0,1,519
21,2,50547,313958,0,1,539
21,2,50547,318424,0,1,536
21,2,50547,322293,0,1,502
21,2,50547,325431,0,1,515
21,1,50547,345106,1,1,1087
21,1,50547,349024,1,0,1767
21,1,50547,352926,3,1,1258
21,1,50547,356828,3,1,1708
21,1,50547,360480,1,1,1727
21,1,50547,364747,3,0,1655
21,1,50547,368450,3,1,1459
21,1,50547,372153,2,1,1686
21,2,50547,393106,0,1,410
21,2,50547,395846,0,1,459
21,2,50547,399648,0,1,426
21,2,50547,403018,0,1,428
21,2,50547,405791,0,1,747
21,2,50547,408381,0,1,460
21,2,50547,411270,0,1,414
21,2,50547,414723,0,1,473
21,2,50547,417629,0,1,497
21,2,50547,421564,0,1,523
25,1,71444,80775,2,0,1432
25,1,71444,85042,1,0,867
25,1,71444,88247,3,0,1249
25,1,71444,91933,3,0,1070
25,1,71444,96250,1,0,1166
25,1,71444,100251,3,0,2448
25,1,71444,105631,1,1,775
25,1,71444,108337,2,0,1236
25,2,71444,129324,0,0,1760
25,2,71444,133325,0,0,2523
25,2,71444,137957,0,0,1770
25,2,71444,142058,0,0,1055
25,2,71444,146458,0,0,1317
25,2,71444,150709,0,1,1006
25,2,71444,155457,0,1,1297
25,1,71444,176212,3,0,1098
25,1,71444,179549,3,0,875
25,1,71444,183052,2,0,777
25,1,71444,187269,2,0,1257
25,1,71444,192051,3,0,1857
25,1,71444,197148,2,1,1404
25,1,71444,201482,2,0,1042
25,1,71444,205666,1,0,1133
25,2,71444,224976,0,0,1026
25,2,71444,228645,0,0,972
25,2,71444,231849,0,0,1306
25,2,71444,235403,0,0,996
25,2,71444,238541,0,0,646
25,2,71444,241828,0,0,888
25,2,71444,245564,0,0,1867
25,2,71444,249266,0,0,745
25,2,71444,252355,0,0,829
25,1,71444,271947,2,0,1546
25,1,71444,275234,2,0,0
25,1,71444,280564,1,0,1293
25,1,71444,284897,1,1,2629
25,1,71444,290924,2,0,2106
25,1,71444,295474,1,1,1692
25,1,71444,299707,1,0,1736
25,2,71444,321093,0,0,1988
25,2,71444,326422,0,0,1010
25,2,71444,330258,0,0,1385
25,2,71444,333778,0,0,551
25,2,71444,337065,0,0,874
25,2,71444,339987,0,0,1007
25,2,71444,344935,0,0,782
25,2,71444,349053,0,0,974
25,1,71444,369193,1,0,0
25,1,71444,374522,1,0,0
25,1,71444,379155,3,0,2302
25,1,71444,384103,3,0,1833
25,1,71444,387871,1,0,1025
25,1,71444,391425,3,1,1384
25,1,71444,394878,3,0,2685
25,2,71444,416130,0,0,702
25,2,71444,419169,0,0,721
25,2,71444,423237,0,0,724
25,2,71444,426889,0,0,700
25,2,71444,429928,0,1,695
25,2,71444,432468,0,1,919
25,2,71444,435822,0,0,729
25,2,71444,439591,0,0,689
25,2,71444,442712,0,1,1036
30,1,25390,34722,2,1,1188
30,1,25390,38756,1,0,1056
30,1,25390,42143,3,1,1271
30,1,25390,45846,3,1,1076
30,1,25390,50146,1,1,1071
30,1,25390,54064,3,1,1234
30,1,25390,58232,1,0,1001
30,1,25390,61171,2,0,1250
30,2,25390,82174,0,1,837
30,2,25390,85245,0,1,941
30,2,25390,88317,0,1,633
30,2,25390,91289,0,1,504
30,2,25390,95124,0,1,439
30,2,25390,98495,0,1,611
30,2,25390,102845,0,1,564
30,2,25390,106348,0,1,829
30,2,25390,110217,0,1,491
30,1,25390,129261,3,1,875
30,1,25390,132366,3,1,917
30,1,25390,135919,2,1,1232
30,1,25390,140584,2,0,1568
30,1,25390,145682,3,1,791
30,1,25390,149716,2,1,1014
30,1,25390,153668,2,0,1213
30,1,25390,158018,1,1,1161
30,2,25390,177344,0,1,1023
30,2,25390,181013,0,1,939
30,2,25390,184185,0,1,694
30,2,25390,187123,0,1,443
30,2,25390,189697,0,1,668
30,2,25390,193001,0,1,579
30,2,25390,196421,0,1,478
30,2,25390,198729,0,1,962
30,2,25390,202033,0,1,625
30,2,25390,204889,0,1,596
30,1,25390,224232,2,1,1435
30,1,25390,227403,2,1,1574
30,1,25390,231820,1,0,1362
30,1,25390,236220,1,1,1658
30,1,25390,241416,2,1,1532
30,1,25390,245385,1,0,1403
30,1,25390,249320,1,0,1232
30,1,25390,253686,3,1,1314
30,2,25390,274158,0,1,1134
30,2,25390,278624,0,1,615
30,2,25390,282078,0,1,553
30,2,25390,284768,0,1,730
30,2,25390,288238,0,1,694
30,2,25390,290977,0,1,838
30,2,25390,295742,0,1,671
30,2,25390,299744,0,1,497
30,2,25390,302882,0,1,453
30,1,25390,322490,1,0,1508
30,1,25390,326824,1,0,1709
30,1,25390,330676,3,1,1119
30,1,25390,334428,3,1,1162
30,1,25390,337517,1,1,1201
30,1,25390,341252,3,1,1014
30,1,25390,344340,3,1,1105
30,1,25390,347678,2,1,1667
30,1,25390,352078,2,1,1487
30,2,25390,372516,0,1,454
30,2,25390,375306,0,1,511
30,2,25390,379141,0,1,467
30,2,25390,382545,0,1,335
30,2,25390,385218,0,1,510
30,2,25390,387543,0,1,484
30,2,25390,390464,0,1,422
30,2,25390,393934,0,1,475
30,2,25390,396840,0,1,448
30,2,25390,400725,0,1,459
32,1,18383,27714,2,1,1448
32,1,18383,31998,1,0,1675
32,1,18383,36016,3,1,911
32,1,18383,39370,3,1,1385
32,1,18383,43986,1,1,927
32,1,18383,47755,3,1,1623
32,1,18383,52321,1,0,1226
32,1,18383,55492,2,1,1530
32,2,18383,76777,0,1,1221
32,2,18383,80231,0,1,481
32,2,18383,82854,0,1,446
32,2,18383,85643,0,1,349
32,2,18383,89329,0,1,517
32,2,18383,92783,0,1,548
32,2,18383,97066,0,1,498
32,2,18383,100503,0,1,809
32,2,18383,104355,0,1,520
32,1,18383,123432,3,1,1280
32,1,18383,126952,3,1,813
32,1,18383,130406,2,0,1102
32,1,18383,134939,2,0,1489
32,1,18383,139969,3,1,1073
32,1,18383,144270,2,0,1393
32,1,18383,148603,2,1,1054
32,1,18383,152804,1,1,966
32,2,18383,171931,0,1,624
32,2,18383,175202,0,1,434
32,2,18383,177875,0,1,604
32,2,18383,180714,0,1,361
32,2,18383,183204,0,1,429
32,2,18383,186276,0,1,413
32,2,18383,189530,0,1,522
32,2,18383,191888,0,1,696
32,2,18383,194926,0,1,489
32,2,18383,197649,0,1,479
32,2,18383,200372,0,1,433
32,1,18383,219765,2,1,2002
32,1,18383,223501,2,1,637
32,1,18383,226971,1,1,1054
32,1,18383,231055,1,1,961
32,1,18383,235555,2,1,1192
32,1,18383,239191,1,0,2012
32,1,18383,243740,1,1,1092
32,1,18383,247974,3,1,1089
32,2,18383,268213,0,1,632
32,2,18383,272181,0,1,508
32,2,18383,275535,0,1,749
32,2,18383,278424,0,1,394
32,2,18383,281546,0,1,488
32,2,18383,284069,0,1,458
32,2,18383,288453,0,1,572
32,2,18383,292354,0,1,720
32,2,18383,295725,0,1,565
32,1,18383,315450,1,1,884
32,1,18383,319169,1,1,968
32,1,18383,322274,3,1,1206
32,1,18383,326109,3,1,913
32,1,18383,328965,1,1,840
32,1,18383,332352,3,0,1161
32,1,18383,335556,3,0,1307
32,1,18383,339109,2,0,1201
32,1,18383,343044,2,1,1304
32,2,18383,363300,0,1,1007
32,2,18383,366638,0,1,637
32,2,18383,370606,0,1,519
32,2,18383,374059,0,1,481
32,2,18383,376882,0,1,1175
32,2,18383,379887,0,1,485
32,2,18383,382809,0,1,510
32,2,18383,386362,0,1,495
32,2,18383,389301,0,1,491
32,2,18383,393236,0,1,437
37,1,44035,53366,2,1,1206
37,1,44035,57401,1,1,602
37,1,44035,60340,3,1,968
37,1,44035,63744,3,1,799
37,1,44035,67778,1,1,828
37,1,44035,71448,3,0,638
37,1,44035,75017,1,1,1330
37,1,44035,78288,2,0,986
37,1,44035,82522,1,0,589
37,2,44035,101865,0,1,602
37,2,44035,104704,0,1,406
37,2,44035,107244,0,1,477
37,2,44035,110050,0,1,344
37,2,44035,113736,0,1,520
37,2,44035,117190,0,1,447
37,2,44035,121374,0,1,317
37,2,44035,124628,0,1,473
37,2,44035,128131,0,0,378
37,2,44035,130555,0,1,414
37,1,44035,150031,3,1,925
37,1,44035,153202,3,1,944
37,1,44035,156789,2,1,897
37,1,44035,161122,2,1,841
37,1,44035,165506,3,1,802
37,1,44035,169540,2,0,532
37,1,44035,173010,2,1,1136
37,1,44035,177277,1,1,660
37,1,44035,179569,1,1,1196
37,2,44035,200323,0,1,388
37,2,44035,203345,0,1,459
37,2,44035,206051,0,1,511
37,2,44035,208807,0,1,686
37,2,44035,211630,0,1,821
37,2,44035,215100,0,1,340
37,2,44035,218271,0,1,667
37,2,44035,220778,0,1,650
37,2,44035,223767,0,1,477
37,2,44035,226490,0,1,615
37,2,44035,229346,0,1,422
37,1,44035,248722,2,1,444
37,1,44035,250913,2,1,1412
37,1,44035,255164,1,1,1475
37,1,44035,259663,1,1,1328
37,1,44035,264528,2,1,1290
37,1,44035,268247,1,0,1244
37,1,44035,272033,1,1,911
37,1,44035,276084,3,1,1116
37,2,44035,296357,0,0,1237
37,2,44035,300923,0,1,582
37,2,44035,304343,0,1,389
37,2,44035,306867,0,1,622
37,2,44035,310221,0,0,676
37,2,44035,312927,0,1,428
37,2,44035,317294,0,1,2170
37,2,44035,322806,0,1,745
37,2,44035,326193,0,1,581
37,1,44035,345934,1,1,930
37,1,44035,349703,1,0,953
37,1,44035,352792,3,1,1308
37,1,44035,356743,3,1,776
37,1,44035,359466,1,1,982
37,1,44035,362986,3,0,664
37,1,44035,365692,3,1,1348
37,1,44035,369329,2,0,840
37,1,44035,372898,2,0,752
37,2,44035,392606,0,0,0
37,2,44035,397438,0,0,0
37,2,44035,403266,0,0,0
37,2,44035,408695,0,1,1776
37,2,44035,412813,0,1,1918
37,2,44035,416565,0,1,1124
37,2,44035,420135,0,1,973
40,1,45470,54801,2,0,1509
40,1,45470,59151,1,1,1048
40,1,45470,62538,3,1,2054
40,1,45470,67038,3,1,1574
40,1,45470,71853,1,0,1328
40,1,45470,76020,3,1,1703
40,1,45470,80669,1,0,2008
40,1,45470,84621,2,1,1956
40,2,45470,106338,0,1,544
40,2,45470,109111,0,1,424
40,2,45470,111684,0,1,518
40,2,45470,114540,0,1,499
40,2,45470,118375,0,1,483
40,2,45470,121796,0,1,719
40,2,45470,126245,0,1,513
40,2,45470,129699,0,1,656
40,2,45470,133401,0,1,467
40,2,45470,135908,0,1,585
40,1,45470,155550,3,1,961
40,1,45470,158755,3,1,1666
40,1,45470,163055,2,1,1672
40,1,45470,168169,2,1,1298
40,1,45470,173000,3,1,1625
40,1,45470,177865,2,1,1123
40,1,45470,181933,2,1,1367
40,2,45470,202969,0,1,398
40,2,45470,206007,0,1,538
40,2,45470,208780,0,1,1736
40,2,45470,212748,0,1,368
40,2,45470,215255,0,1,451
40,2,45470,218344,0,1,585
40,2,45470,221764,0,1,461
40,2,45470,224072,0,1,443
40,2,45470,226845,0,1,502
40,2,45470,229584,0,1,399
40,2,45470,232224,0,1,562
40,1,45470,251750,2,1,1135
40,1,45470,254622,2,1,1903
40,1,45470,259354,1,1,2541
40,1,45470,264883,1,1,1372
40,1,45470,269797,2,0,858
40,1,45470,273101,1,1,1707
40,1,45470,277352,1,1,1411
40,2,45470,298421,0,1,416
40,2,45470,302174,0,1,432
40,2,45470,305445,0,1,495
40,2,45470,308084,0,1,452
40,2,45470,311272,0,1,396
40,2,45470,313713,0,1,577
40,2,45470,318229,0,1,491
40,2,45470,322048,0,1,459
40,2,45470,325153,0,1,549
40,2,45470,328341,0,1,455
40,1,45470,348447,1,1,1232
40,1,45470,352515,1,1,1324
40,1,45470,355968,3,1,1422
40,1,45470,360020,3,1,2594
40,1,45470,364453,1,1,1750
40,1,45470,368736,3,1,1798
40,1,45470,372572,3,1,1586
40,1,45470,376390,2,0,1876
40,2,45470,397526,0,1,964
40,2,45470,400830,0,1,332
40,2,45470,404500,0,1,629
40,2,45470,408070,0,1,299
40,2,45470,410709,0,1,518
40,2,45470,413051,0,1,930
40,2,45470,416421,0,1,462
40,2,45470,419924,0,1,399
40,2,45470,422763,0,1,391
40,2,45470,426599,0,1,405
308,1,107351,116683,2,1,2027
308,1,107351,121547,1,1,1700
308,1,107351,125582,3,0,954
308,1,107351,128969,3,1,958
308,1,107351,133153,1,0,3060
308,1,107351,138483,3,1,1947
308,1,107351,143364,1,0,2135
308,2,107351,163969,0,1,600
308,2,107351,166808,0,1,454
308,2,107351,169399,0,1,531
308,2,107351,172271,0,1,389
308,2,107351,175990,0,1,485
308,2,107351,179410,0,1,395
308,2,107351,183545,0,1,481
308,2,107351,186965,0,1,474
308,2,107351,190485,0,1,433
308,2,107351,192959,0,1,452
308,1,107351,212468,3,1,1247
308,1,107351,215955,3,1,757
308,1,107351,219358,2,1,2610
308,1,107351,225286,2,1,2702
308,1,107351,231313,3,1,1524
308,1,107351,236078,2,1,1968
308,1,107351,240976,2,1,1005
308,2,107351,261631,0,1,634
308,2,107351,264902,0,1,554
308,2,107351,267691,0,1,478
308,2,107351,270414,0,1,510
308,2,107351,273054,0,1,568
308,2,107351,276258,0,1,422
308,2,107351,279513,0,1,414
308,2,107351,281754,0,1,501
308,2,107351,284593,0,1,457
308,2,107351,287283,0,1,526
308,2,107351,290039,0,1,557
308,1,107351,309565,2,1,1193
308,1,107351,312504,2,1,1235
308,1,107351,316572,1,1,1382
308,1,107351,320988,1,1,2760
308,1,107351,327015,2,1,1463
308,1,107351,330917,1,1,1619
308,1,107351,335068,1,1,1439
308,2,107351,356154,0,1,1159
308,2,107351,360654,0,1,1227
308,2,107351,364722,0,1,569
308,2,107351,367428,0,1,512
308,2,107351,370682,0,1,423
308,2,107351,373140,0,1,384
308,2,107351,377457,0,1,306
308,2,107351,381093,0,1,471
308,2,107351,384198,0,1,438
308,1,107351,403806,1,1,2146
308,1,107351,408787,1,1,1781
308,1,107351,412706,3,1,1520
308,1,107351,416857,3,1,929
308,1,107351,419729,1,1,1224
308,1,107351,423498,3,0,1108
308,1,107351,426636,3,1,991
308,1,107351,429857,2,0,1914
308,2,107351,451027,0,1,617
308,2,107351,453982,0,1,522
308,2,107351,457834,0,1,589
308,2,107351,461354,0,1,739
308,2,107351,464442,0,1,530
308,2,107351,466816,0,1,584
308,2,107351,469838,0,1,882
308,2,107351,473757,0,1,377
308,2,107351,476579,0,1,512
308,2,107351,480531,0,1,503
316,1,51619,60961,2,0,842
316,1,51619,64628,1,0,875
316,1,51619,67848,3,0,795
316,1,51619,71084,3,0,853
316,1,51619,75166,1,0,703
316,1,51619,78700,3,0,845
316,1,51619,82483,1,0,948
316,1,51619,85371,2,0,781
316,1,51619,89387,1,0,746
316,2,51619,108884,0,0,478
316,2,51619,111589,0,0,420
316,2,51619,114145,0,0,425
316,2,51619,116916,0,0,388
316,2,51619,120633,0,0,475
316,2,51619,124051,0,0,484
316,2,51619,128266,0,0,453
316,2,51619,131651,0,0,493
316,2,51619,135186,0,0,453
316,2,51619,137675,0,0,513
316,1,51619,157305,3,0,740
316,1,51619,160292,3,0,669
316,1,51619,163594,2,0,723
316,1,51619,167743,2,0,989
316,1,51619,172273,3,0,898
316,1,51619,176405,2,0,1299
316,1,51619,180636,2,0,697
316,1,51619,184469,1,0,1013
316,1,51619,187124,1,0,941
316,2,51619,207634,0,0,449
316,2,51619,210721,0,0,429
316,2,51619,213393,0,0,501
316,2,51619,216131,0,0,415
316,2,51619,218686,0,0,429
316,2,51619,221756,0,0,479
316,2,51619,225075,0,0,473
316,2,51619,227398,0,0,479
316,2,51619,230219,0,0,550
316,2,51619,233007,0,0,431
316,2,51619,235678,0,0,570
316,1,51619,255193,2,0,560
316,1,51619,257499,2,0,725
316,1,51619,261067,1,0,1957
316,1,51619,266062,1,0,663
316,1,51619,270260,2,0,710
316,1,51619,273413,1,0,740
316,1,51619,276698,1,0,786
316,1,51619,280614,3,0,706
316,1,51619,283950,3,0,902
316,2,51619,304194,0,0,487
316,2,51619,308011,0,0,695
316,2,51619,311545,0,0,892
316,2,51619,314582,0,0,575
316,2,51619,317901,0,0,458
316,2,51619,320390,0,0,498
316,2,51619,324820,0,0,581
316,2,51619,328737,0,0,445
316,2,51619,331823,0,0,473
316,1,51619,351437,1,1,1153
316,1,51619,355420,1,0,819
316,1,51619,358373,3,0,738
316,1,51619,361742,3,0,703
316,1,51619,364380,1,0,989
316,1,51619,367915,3,0,922
316,1,51619,370902,3,0,915
316,1,51619,374054,2,1,813
316,1,51619,377655,2,0,771
316,1,51619,380858,1,0,1019
316,2,51619,400920,0,0,649
316,2,51619,403907,0,0,464
316,2,51619,407707,0,0,498
316,2,51619,411142,0,0,416
316,2,51619,413896,0,0,424
316,2,51619,416186,0,0,495
316,2,51619,419123,0,0,454
316,2,51619,422608,0,0,818
316,2,51619,425861,0,0,424
316,2,51619,429727,0,0,509
320,1,64597,73929,2,0,940
320,1,64597,77714,1,0,906
320,1,64597,80952,3,0,948
320,1,64597,84339,3,1,961
320,1,64597,88539,1,0,1050
320,1,64597,92425,3,1,1193
320,1,64597,96559,1,1,1003
320,1,64597,99498,2,0,1217
320,2,64597,120468,0,1,650
320,2,64597,123357,0,1,581
320,2,64597,126080,0,1,947
320,2,64597,129367,0,1,642
320,2,64597,133352,0,1,575
320,2,64597,136856,0,1,560
320,2,64597,141156,0,1,953
320,2,64597,145058,0,1,770
320,2,64597,148860,0,1,1435
320,1,64597,168867,3,1,649
320,1,64597,171756,3,1,822
320,1,64597,175210,2,1,1206
320,1,64597,179842,2,1,703
320,1,64597,184076,3,1,1008
320,1,64597,188310,2,1,1187
320,1,64597,192427,2,1,914
320,1,64597,196479,1,0,1043
320,2,64597,215689,0,1,1486
320,2,64597,219807,0,1,700
320,2,64597,222745,0,1,1768
320,2,64597,226763,0,1,615
320,2,64597,229520,0,1,562
320,2,64597,232724,0,1,455
320,2,64597,236012,0,1,609
320,2,64597,238469,0,1,784
320,2,64597,241590,0,1,607
320,2,64597,244429,0,1,549
320,1,64597,263756,2,1,588
320,1,64597,266080,2,1,1047
320,1,64597,269966,1,0,1009
320,1,64597,274017,1,0,973
320,1,64597,278533,2,0,997
320,1,64597,281970,1,0,966
320,1,64597,285473,1,0,1069
320,1,64597,289674,3,1,923
320,1,64597,293227,3,1,892
320,2,64597,313467,0,1,1247
320,2,64597,318049,0,1,564
320,2,64597,321453,0,1,428
320,2,64597,324027,0,1,387
320,2,64597,327165,0,1,537
320,2,64597,329755,0,1,444
320,2,64597,334138,0,1,460
320,2,64597,337924,0,1,452
320,2,64597,341012,0,1,447
320,1,64597,360621,1,1,1119
320,1,64597,364572,1,1,935
320,1,64597,367644,3,1,2173
320,1,64597,372459,3,1,857
320,1,64597,375265,1,1,1435
320,1,64597,379233,3,1,843
320,1,64597,382122,3,1,1157
320,1,64597,385576,2,1,1588
320,1,64597,389909,2,1,1388
320,2,64597,410265,0,1,726
320,2,64597,413337,0,1,602
320,2,64597,417272,0,1,835
320,2,64597,421041,0,1,445
320,2,64597,423830,0,1,387
320,2,64597,426055,0,1,313
320,2,64597,428811,0,1,538
320,2,64597,432381,0,1,577
320,2,64597,435386,0,1,449
320,2,64597,439271,0,0,455
326,1,44044,53375,2,0,732
326,1,44044,56945,1,1,617
326,1,44044,59900,3,1,829
326,1,44044,63171,3,1,644
326,1,44044,67057,1,1,579
326,1,44044,70477,3,1,833
326,1,44044,74246,1,1,828
326,1,44044,77003,2,1,1132
326,1,44044,81369,1,1,873
326,2,44044,100994,0,1,658
326,2,44044,103883,0,0,255
326,2,44044,106274,0,1,514
326,2,44044,109130,0,1,395
326,2,44044,112865,0,1,416
326,2,44044,116219,0,1,405
326,2,44044,120354,0,1,437
326,2,44044,123724,0,1,396
326,2,44044,127161,0,1,375
326,2,44044,129585,0,1,496
326,1,44044,149144,3,1,504
326,1,44044,151884,3,1,791
326,1,44044,155320,2,1,1024
326,1,44044,159787,2,1,780
326,1,44044,164104,3,1,741
326,1,44044,168072,2,1,675
326,1,44044,171691,2,1,1054
326,1,44044,175875,1,0,1068
326,1,44044,178565,1,1,1143
326,2,44044,199270,0,1,846
326,2,44044,202756,0,1,387
326,2,44044,205380,0,1,498
326,2,44044,208119,0,1,479
326,2,44044,210743,0,1,581
326,2,44044,213964,0,1,290
326,2,44044,217085,0,1,297
326,2,44044,219227,0,1,371
326,2,44044,221933,0,1,355
326,2,44044,224523,0,1,422
326,2,44044,227180,0,1,281
326,1,44044,246423,2,1,1040
326,1,44044,249197,2,1,782
326,1,44044,252816,1,1,734
326,1,44044,256585,1,0,1092
326,1,44044,261217,2,1,883
326,1,44044,264538,1,0,1419
326,1,44044,268489,1,1,939
326,1,44044,272557,3,1,773
326,1,44044,275961,3,1,705
326,2,44044,296034,0,1,324
326,2,44044,299687,0,1,698
326,2,44044,303224,0,1,381
326,2,44044,305747,0,1,558
326,2,44044,309035,0,1,439
326,2,44044,311493,0,1,338
326,2,44044,315776,0,1,464
326,2,44044,319578,0,1,548
326,2,44044,322766,0,1,421
326,2,44044,325821,0,0,349
326,1,44044,345828,1,0,737
326,1,44044,349415,1,1,951
326,1,44044,352503,3,1,884
326,1,44044,356023,3,1,826
326,1,44044,358779,1,0,1196
326,1,44044,362515,3,1,854
326,1,44044,365387,3,1,722
326,1,44044,368342,2,1,1658
326,1,44044,372726,2,1,844
326,2,44044,392534,0,1,729
326,2,44044,395605,0,1,320
326,2,44044,399258,0,1,289
326,2,44044,402479,0,1,264
326,2,44044,405086,0,1,297
326,2,44044,407228,0,1,362
326,2,44044,410034,0,1,305
326,2,44044,413371,0,1,229
326,2,44044,416027,0,1,441
326,2,44044,419913,0,1,476
326,2,44044,422320,0,1,538
330,1,28022,37353,2,0,1252
330,1,28022,41520,1,1,686
330,1,28022,44542,3,1,1171
330,1,28022,48145,3,1,749
330,1,28022,52130,1,0,817
330,1,28022,55783,3,1,1056
330,1,28022,59784,1,1,1062
330,1,28022,62789,2,0,906
330,1,28022,66940,1,1,1233
330,2,28022,86931,0,1,346
330,2,28022,89521,0,1,437
330,2,28022,92094,0,1,411
330,2,28022,94851,0,1,337
330,2,28022,98520,0,1,403
330,2,28022,101857,0,1,450
330,2,28022,106041,0,1,402
330,2,28022,109378,0,1,430
330,2,28022,112832,0,1,494
330,2,28022,115372,0,1,405
330,1,28022,134914,3,1,1064
330,1,28022,138236,3,1,1466
330,1,28022,142369,2,1,1302
330,1,28022,147151,2,1,1071
330,1,28022,151800,3,1,750
330,1,28022,155818,2,0,1322
330,1,28022,160152,2,1,1147
330,1,28022,164485,1,1,978
330,2,28022,183629,0,1,783
330,2,28022,187049,0,1,492
330,2,28022,189822,0,1,476
330,2,28022,192545,0,1,403
330,2,28022,195085,0,1,407
330,2,28022,198174,0,1,589
330,2,28022,201594,0,1,399
330,2,28022,203835,0,1,478
330,2,28022,206658,0,1,455
330,2,28022,209347,0,1,394
330,2,28022,212037,0,1,432
330,1,28022,231480,2,1,1136
330,1,28022,234402,2,1,1352
330,1,28022,238636,1,1,1466
330,1,28022,243202,1,1,1947
330,1,28022,248730,2,1,808
330,1,28022,252018,1,0,1890
330,1,28022,256484,1,1,1043
330,1,28022,260718,3,1,1388
330,2,28022,281306,0,1,491
330,2,28022,285142,0,1,383
330,2,28022,288363,0,1,345
330,2,28022,290853,0,1,330
330,2,28022,293925,0,1,375
330,2,28022,296382,0,1,376
330,2,28022,300699,0,1,356
330,2,28022,304402,0,1,479
330,2,28022,307523,0,1,399
330,2,28022,310611,0,1,362
330,1,28022,330685,1,1,1395
330,1,28022,334968,1,1,2399
330,1,28022,339534,3,1,1153
330,1,28022,343370,3,1,1305
330,1,28022,346657,1,1,965
330,1,28022,350210,3,1,1544
330,1,28022,353830,3,1,1742
330,1,28022,357881,2,0,1274
330,2,28022,378419,0,1,460
330,2,28022,381209,0,1,442
330,2,28022,384978,0,1,356
330,2,28022,388315,0,1,592
330,2,28022,391254,0,1,582
330,2,28022,393694,0,1,483
330,2,28022,396617,0,1,469
330,2,28022,400153,0,1,426
330,2,28022,403009,0,1,1197
330,2,28022,407641,0,1,481
331,1,35213,44560,2,1,1711
331,1,35213,49110,1,1,1322
331,1,35213,52779,3,1,865
331,1,35213,56083,3,1,701
331,1,35213,60018,1,1,1255
331,1,35213,64119,3,1,1075
331,1,35213,68137,1,1,824
331,1,35213,70893,2,1,1142
331,2,35213,91797,0,1,352
331,2,35213,94387,0,1,287
331,2,35213,96811,0,1,357
331,2,35213,99501,0,1,287
331,2,35213,103120,0,1,410
331,2,35213,106474,0,1,302
331,2,35213,110509,0,1,374
331,2,35213,113813,0,1,355
331,2,35213,117200,0,1,321
331,2,35213,119558,0,1,363
331,1,35213,139000,3,1,732
331,1,35213,141972,3,1,581
331,1,35213,145193,2,1,766
331,1,35213,149394,2,0,1399
331,1,35213,154325,3,1,973
331,1,35213,158542,2,1,973
331,1,35213,162461,2,1,982
331,1,35213,166578,1,1,1264
331,2,35213,186004,0,1,430
331,2,35213,189059,0,1,313
331,2,35213,191616,0,1,311
331,2,35213,194157,0,1,366
331,2,35213,196664,0,1,384
331,2,35213,199685,0,1,310
331,2,35213,202840,0,1,321
331,2,35213,204999,0,1,1047
331,2,35213,208386,0,1,360
331,2,35213,210992,0,1,332
331,2,35213,213566,0,1,323
331,1,35213,232859,2,1,814
331,1,35213,235416,2,1,946
331,1,35213,239202,1,1,793
331,1,35213,243037,1,1,973
331,1,35213,247553,2,1,961
331,1,35213,250957,1,1,1108
331,1,35213,254609,1,1,1154
331,1,35213,258893,3,1,634
331,1,35213,262164,3,1,989
331,2,35213,282503,0,1,442
331,2,35213,286272,0,1,415
331,2,35213,289526,0,1,378
331,2,35213,292050,0,1,348
331,2,35213,295138,0,1,307
331,2,35213,297479,0,1,350
331,2,35213,301763,0,1,307
331,2,35213,305399,0,1,300
331,2,35213,308338,0,1,333
331,2,35213,311310,0,1,289
331,1,35213,331251,1,0,1301
331,1,35213,335385,1,1,898
331,1,35213,338423,3,1,1068
331,1,35213,342126,3,1,926
331,1,35213,344998,1,1,1123
331,1,35213,348668,3,1,1142
331,1,35213,351855,3,1,731
331,1,35213,354827,2,1,986
331,1,35213,358547,2,1,553
331,2,35213,378056,0,1,387
331,2,35213,380778,0,1,306
331,2,35213,384415,0,1,313
331,2,35213,387669,0,1,339
331,2,35213,390342,0,1,374
331,2,35213,392550,0,1,308
331,2,35213,395306,0,1,298
331,2,35213,398644,0,1,361
331,2,35213,401433,0,1,363
331,2,35213,405235,0,1,333
331,2,35213,407510,0,1,464
332,1,71734,81065,2,0,844
332,1,71734,84751,1,1,1275
332,1,71734,88371,3,1,1230
332,1,71734,92040,3,1,1212
332,1,71734,96490,1,0,1231
332,1,71734,100558,3,1,1104
332,1,71734,104592,1,0,1062
332,1,71734,107598,2,1,1074
332,2,71734,128435,0,1,334
332,2,71734,131008,0,1,345
332,2,71734,133499,0,0,356
332,2,71734,136205,0,1,477
332,2,71734,140024,0,1,453
332,2,71734,143411,0,1,548
332,2,71734,147695,0,1,409
332,2,71734,151049,0,1,514
332,2,71734,154602,0,1,600
332,2,71734,157242,0,1,550
332,1,71734,176850,3,1,1012
332,1,71734,180105,3,1,1039
332,1,71734,183774,2,1,1348
332,1,71734,188556,2,1,1037
332,1,71734,193122,3,1,1214
332,1,71734,197571,2,1,957
332,1,71734,201473,2,1,894
332,1,71734,205508,1,1,789
332,2,71734,224469,0,1,546
332,2,71734,227657,0,1,472
332,2,71734,230363,0,1,551
332,2,71734,233152,0,1,483
332,2,71734,235776,0,1,609
332,2,71734,239030,0,1,515
332,2,71734,242384,0,1,472
332,2,71734,244692,0,1,468
332,2,71734,247498,0,1,541
332,2,71734,250270,0,1,588
332,2,71734,253110,0,1,463
332,1,71734,272535,2,1,659
332,1,71734,274927,2,0,1434
332,1,71734,279193,1,0,1385
332,1,71734,283610,1,0,1390
332,1,71734,288525,2,1,1159
332,1,71734,292111,1,0,982
332,1,71734,295631,1,0,1520
332,1,71734,300296,3,1,1283
332,2,71734,320735,0,0,1118
332,2,71734,325185,0,1,530
332,2,71734,328555,0,1,835
332,2,71734,331527,0,1,532
332,2,71734,334798,0,1,472
332,2,71734,337305,0,1,488
332,2,71734,341738,0,1,401
332,2,71734,345474,0,1,422
332,2,71734,348529,0,1,632
332,1,71734,368320,1,1,1186
332,1,71734,372338,1,1,1119
332,1,71734,375593,3,1,864
332,1,71734,379096,3,1,1108
332,1,71734,382151,1,1,1414
332,1,71734,386103,3,1,1300
332,1,71734,389440,3,1,1405
332,1,71734,393142,2,0,1265
332,1,71734,397144,2,0,1368
332,2,71734,417466,0,1,573
332,2,71734,420372,0,1,320
332,2,71734,424025,0,0,482
332,2,71734,427445,0,1,452
332,2,71734,430234,0,1,570
332,2,71734,432642,0,1,545
332,2,71734,435630,0,1,445
332,2,71734,439117,0,1,432
332,2,71734,441990,0,1,690
332,2,71734,446124,0,1,394
335,1,17757,27088,2,1,725
335,1,17757,30724,1,0,414
335,1,17757,33481,3,1,459
335,1,17757,36386,3,1,355
335,1,17757,39972,1,1,450
335,1,17757,43260,3,0,521
335,1,17757,46713,1,1,465
335,1,17757,49121,2,0,490
335,1,17757,52840,1,1,453
335,1,17757,55530,2,1,716
335,2,17757,75304,0,1,385
335,2,17757,77928,0,0,337
335,2,17757,80402,0,1,393
335,2,17757,83125,0,0,321
335,2,17757,86777,0,1,421
335,2,17757,90131,0,1,313
335,2,17757,94166,0,0,384
335,2,17757,97487,0,0,412
335,2,17757,100940,0,1,427
335,2,17757,103414,0,1,393
335,1,17757,122956,3,1,649
335,1,17757,125895,3,0,377
335,1,17757,128933,2,1,565
335,1,17757,133001,2,1,669
335,1,17757,137252,3,0,588
335,1,17757,141137,2,1,501
335,1,17757,144624,2,1,521
335,1,17757,148326,1,1,623
335,1,17757,150634,1,1,604
335,2,17757,170790,0,1,378
335,2,17757,173812,0,1,440
335,2,17757,176485,0,1,340
335,2,17757,179059,0,1,418
335,2,17757,181616,0,1,355
335,2,17757,184654,0,0,372
335,2,17757,187859,0,1,414
335,2,17757,190101,0,1,509
335,2,17757,192956,0,1,448
335,2,17757,195646,0,1,612
335,2,17757,198551,0,1,550
335,1,17757,218127,2,1,457
335,1,17757,220352,2,0,578
335,1,17757,223822,1,0,517
335,1,17757,227441,1,0,491
335,1,17757,231526,2,1,1078
335,1,17757,235062,1,1,690
335,1,17757,238300,1,1,530
335,1,17757,242002,3,0,499
335,1,17757,245190,3,0,711
335,2,17757,265297,0,1,490
335,2,17757,269132,0,1,672
335,2,17757,272636,0,1,468
335,2,17757,275242,0,1,414
335,2,17757,278397,0,1,396
335,2,17757,280855,0,1,477
335,2,17757,285271,0,1,462
335,2,17757,289073,0,1,462
335,2,17757,292178,0,1,419
335,2,17757,295233,0,1,539
335,1,17757,315489,1,0,551
335,1,17757,318926,1,1,647
335,1,17757,321748,3,0,860
335,1,17757,325301,3,1,567
335,1,17757,327842,1,1,736
335,1,17757,331146,3,0,1056
335,1,17757,334284,3,1,679
335,1,17757,337256,2,1,815
335,1,17757,340842,2,1,999
335,1,17757,344312,1,1,818
335,2,17757,364187,0,1,391
335,2,17757,366909,0,1,374
335,2,17757,370612,0,1,487
335,2,17757,374032,0,1,584
335,2,17757,376955,0,1,408
335,2,17757,379246,0,1,599
335,2,17757,382284,0,1,500
335,2,17757,385871,0,1,502
335,2,17757,388809,0,1,375
335,2,17757,392628,0,1,493
336,1,21156,30487,2,1,1271
336,1,21156,34688,1,1,1674
336,1,21156,38706,3,0,1855
336,1,21156,43006,3,1,1501
336,1,21156,47738,1,1,1780
336,1,21156,52353,3,0,1410
336,1,21156,56704,1,0,1627
336,1,21156,60273,2,1,2059
336,2,21156,82090,0,1,1341
336,2,21156,85676,0,1,719
336,2,21156,88532,0,1,700
336,2,21156,91570,0,1,533
336,2,21156,95439,0,1,671
336,2,21156,99042,0,1,905
336,2,21156,103674,0,1,890
336,2,21156,107493,0,1,799
336,2,21156,111328,0,1,606
336,1,21156,130588,3,1,916
336,1,21156,133776,3,1,1179
336,1,21156,137628,2,1,1895
336,1,21156,142991,2,1,1223
336,1,21156,147773,3,1,1374
336,1,21156,152422,2,0,2181
336,1,21156,157602,2,0,2293
336,2,21156,179551,0,1,665
336,2,21156,182855,0,1,458
336,2,21156,185578,0,1,574
336,2,21156,188384,0,1,359
336,2,21156,190875,0,1,504
336,2,21156,194063,0,1,827
336,2,21156,197715,0,1,575
336,2,21156,200189,0,1,1060
336,2,21156,203593,0,1,1435
336,2,21156,207262,0,1,1590
336,1,21156,227651,2,1,1268
336,1,21156,230690,2,1,1380
336,1,21156,234957,1,0,0
336,1,21156,240552,1,1,1016
336,1,21156,245151,2,1,1803
336,1,21156,249401,1,1,1441
336,1,21156,253419,1,1,1010
336,1,21156,257587,3,1,2009
336,2,21156,278789,0,1,900
336,2,21156,283023,0,1,691
336,2,21156,286543,0,1,725
336,2,21156,289399,0,1,735
336,2,21156,292869,0,1,824
336,2,21156,295775,0,1,688
336,2,21156,300390,0,1,949
336,2,21156,304674,0,1,675
336,2,21156,307995,0,1,671
336,1,21156,327885,1,1,1566
336,1,21156,332335,1,1,1108
336,1,21156,335622,3,1,1322
336,1,21156,339640,3,1,1168
336,1,21156,342778,1,1,1357
336,1,21156,346697,3,0,1011
336,1,21156,349785,3,1,1577
336,1,21156,353654,2,1,816
336,1,21156,357223,2,1,1613
336,2,21156,377795,0,1,799
336,2,21156,380933,0,1,633
336,2,21156,384901,0,1,717
336,2,21156,388587,0,1,662
336,2,21156,391592,0,1,1110
336,2,21156,394581,0,1,645
336,2,21156,397669,0,1,567
336,2,21156,401305,0,1,798
336,2,21156,404543,0,1,846
340,1,63529,72860,2,1,1633
340,1,63529,77327,1,0,1305
340,1,63529,80979,3,1,1344
340,1,63529,84765,3,1,1006
340,1,63529,88999,1,1,1037
340,1,63529,92867,3,1,1287
340,1,63529,97085,1,1,1504
340,1,63529,100522,2,1,1202
340,2,63529,121475,0,1,1080
340,2,63529,124796,0,1,403
340,2,63529,127336,0,1,626
340,2,63529,130292,0,1,469
340,2,63529,134094,0,1,474
340,2,63529,137514,0,1,434
340,2,63529,141682,0,1,515
340,2,63529,145135,0,1,396
340,2,63529,148572,0,1,461
340,2,63529,151079,0,1,451
340,1,63529,170588,3,1,1183
340,1,63529,174009,3,1,1026
340,1,63529,177678,2,1,1660
340,1,63529,182775,2,0,2091
340,1,63529,188404,3,1,1317
340,1,63529,192953,2,1,1387
340,1,63529,197270,2,1,904
340,2,63529,217825,0,1,562
340,2,63529,221013,0,1,427
340,2,63529,223686,0,1,507
340,2,63529,226443,0,1,441
340,2,63529,229016,0,1,496
340,2,63529,232154,0,1,461
340,2,63529,235458,0,1,694
340,2,63529,237999,0,1,454
340,2,63529,240805,0,1,581
340,2,63529,243627,0,1,475
340,2,63529,246334,0,1,438
340,1,63529,265727,2,1,1423
340,1,63529,268881,2,1,1521
340,1,63529,273248,1,1,1629
340,1,63529,277914,1,1,2039
340,1,63529,283492,2,0,1687
340,1,63529,287627,1,1,1603
340,1,63529,291777,1,1,1301
340,2,63529,312731,0,1,811
340,2,63529,316882,0,1,399
340,2,63529,320120,0,1,558
340,2,63529,322809,0,1,348
340,2,63529,325898,0,1,403
340,2,63529,328338,0,1,401
340,2,63529,332672,0,1,564
340,2,63529,336574,0,1,477
340,2,63529,339695,0,1,485
340,1,63529,359354,1,1,1359
340,1,63529,363554,1,1,1434
340,1,63529,367124,3,1,1178
340,1,63529,370943,3,1,1030
340,1,63529,373915,1,1,1083
340,1,63529,377535,3,0,1435
340,1,63529,381005,3,1,1038
340,1,63529,384276,2,1,1775
340,1,63529,388792,2,1,1172
340,2,63529,408932,0,1,532
340,2,63529,411804,0,1,463
340,2,63529,415606,0,1,519
340,2,63529,419060,0,1,459
340,2,63529,421866,0,1,474
340,2,63529,424174,0,1,455
340,2,63529,427063,0,1,586
340,2,63529,430682,0,1,601
340,2,63529,433721,0,1,543
340,2,63529,437706,0,1,413
341,1,20525,29856,2,0,725
341,1,20525,33409,1,1,1345
341,1,20525,37095,3,0,774
341,1,20525,40300,3,1,805
341,1,20525,44335,1,1,1576
341,1,20525,48751,3,0,1276
341,1,20525,52968,1,0,1379
341,1,20525,56289,2,1,983
341,2,20525,77027,0,1,1135
341,2,20525,80397,0,1,493
341,2,20525,83021,0,1,538
341,2,20525,85910,0,1,371
341,2,20525,89612,0,1,458
341,2,20525,93016,0,1,484
341,2,20525,97233,0,1,437
341,2,20525,100604,0,1,531
341,2,20525,104174,0,1,363
341,2,20525,106581,0,1,645
341,1,20525,126273,3,1,893
341,1,20525,129411,3,1,763
341,1,20525,132815,2,1,1684
341,1,20525,137929,2,1,820
341,1,20525,142295,3,1,835
341,1,20525,146363,2,0,1038
341,1,20525,150348,2,1,1066
341,1,20525,154549,1,1,774
341,2,20525,173493,0,1,553
341,2,20525,176681,0,1,354
341,2,20525,179271,0,1,403
341,2,20525,181911,0,1,341
341,2,20525,184402,0,1,540
341,2,20525,187590,0,1,383
341,2,20525,190811,0,1,433
341,2,20525,193085,0,1,478
341,2,20525,195908,0,1,499
341,2,20525,198648,0,1,409
341,2,20525,201288,0,1,436
341,1,20525,220680,2,1,1505
341,1,20525,223919,2,1,722
341,1,20525,227488,1,1,821
341,1,20525,231340,1,1,831
341,1,20525,235707,2,0,832
341,1,20525,238977,1,0,665
341,1,20525,242182,1,0,622
341,1,20525,245934,3,1,751
341,1,20525,249321,3,1,1146
341,2,20525,269827,0,1,467
341,2,20525,273629,0,1,451
341,2,20525,276917,0,1,499
341,2,20525,279556,0,1,407
341,2,20525,282711,0,1,537
341,2,20525,285285,0,1,418
341,2,20525,289635,0,1,489
341,2,20525,293454,0,1,463
341,2,20525,296558,0,1,449
341,2,20525,299647,0,1,418
341,1,20525,319720,1,1,1200
341,1,20525,323755,1,1,905
341,1,20525,326793,3,1,1064
341,1,20525,330496,3,1,774
341,1,20525,333202,1,1,925
341,1,20525,336656,3,1,948
341,1,20525,339645,3,1,725
341,1,20525,342617,2,1,832
341,1,20525,346186,2,0,958
341,1,20525,349573,1,0,849
341,2,20525,369481,0,1,403
341,2,20525,372221,0,1,357
341,2,20525,375923,0,1,454
341,2,20525,379310,0,1,493
341,2,20525,382133,0,1,554
341,2,20525,384524,0,1,420
341,2,20525,387380,0,1,381
341,2,20525,390800,0,1,490
341,2,20525,393722,0,1,424
341,2,20525,397574,0,1,450
